timestamp,acc_x,acc_y,acc_z,gyro_x,gyro_y,gyro_z
0.0,0.2232,-0.8976,0.2695,44.3115,-48.8281,-30.0293
5.106,0.222,-0.8981,0.2624,44.7388,-49.9878,-30.8228
8.427,0.2161,-0.8937,0.2597,45.105,-51.2695,-31.5552
12.142,0.2125,-0.8972,0.2585,45.4712,-52.6733,-32.2876
16.014,0.2108,-0.8967,0.2587,46.3257,-54.1382,-32.959
20.097,0.2086,-0.9037,0.2583,46.7529,-55.7861,-33.6304
24.171,0.2103,-0.9003,0.2573,47.1191,-57.1899,-34.2407
28.007,0.209,-0.9047,0.2563,47.7905,-58.6548,-34.9121
32.07,0.2115,-0.9035,0.2563,48.4619,-60.0586,-35.4614
39.124,0.2108,-0.903,0.2556,49.0723,-61.3403,-36.1328
43.291,0.2108,-0.9011,0.2585,49.9878,-62.5,-36.6821
46.263,0.2139,-0.8947,0.2624,50.6592,-63.5986,-37.1704
49.268,0.2098,-0.8925,0.2614,50.9644,-64.1479,-37.5366
52.323,0.2115,-0.8891,0.2629,51.3306,-65.0635,-37.9639
56.107,0.2129,-0.8827,0.2605,51.8799,-65.7959,-38.3911
60.023,0.2173,-0.8742,0.26,52.4292,-66.6504,-38.7573
64.014,0.2154,-0.8659,0.2605,52.7344,-67.3218,-39.0015
68.841,0.2159,-0.8593,0.259,52.3071,-67.9932,-39.1846
71.97,0.222,-0.853,0.2602,52.6123,-68.4814,-39.3066
76.07,0.2178,-0.8464,0.2551,51.7578,-68.9087,-39.3677
79.97,0.221,-0.8444,0.25,51.5137,-69.519,-39.3677
84.07,0.2237,-0.8434,0.249,50.5371,-69.9463,-39.3066
87.97,0.2239,-0.8378,0.2487,49.5605,-70.2515,-39.1846
91.951,0.2286,-0.839,0.2443,48.9502,-70.5566,-39.1235
96.039,0.2293,-0.8437,0.2448,47.7905,-70.9839,-39.0015
102.2,0.2315,-0.84,0.2453,46.936,-70.8008,-38.6963
105.397,0.2361,-0.8456,0.2458,46.0205,-70.4346,-38.5132
108.038,0.2457,-0.8466,0.2458,46.2036,-70.0684,-38.147
111.997,0.2496,-0.8505,0.2465,45.3491,-69.519,-37.6587
116.034,0.2532,-0.8525,0.2543,44.8608,-68.4814,-36.9873
119.894,0.2571,-0.8505,0.2629,44.3115,-67.3218,-36.2549
123.906,0.2584,-0.8476,0.2624,43.7622,-65.979,-35.7056
128.038,0.2574,-0.8425,0.2631,43.1519,-64.3311,-34.729
133.549,0.2554,-0.8427,0.2668,42.5415,-62.9272,-33.8135
136.699,0.2537,-0.8351,0.2648,41.8091,-61.5234,-33.02
141.602,0.2552,-0.8342,0.2666,40.6494,-60.3638,-32.1045
144.795,0.251,-0.8261,0.2668,39.4897,-59.021,-31.311
147.999,0.2547,-0.8246,0.2683,38.6963,-57.8003,-30.4565
151.925,0.2559,-0.8141,0.2705,38.0249,-56.4575,-29.7852
156.034,0.264,-0.8122,0.2741,36.6821,-54.9927,-28.9307
160.003,0.2657,-0.8068,0.2773,35.4614,-53.772,-28.3203
165.734,0.2791,-0.7953,0.278,33.9966,-52.3071,-27.4048
168.763,0.2864,-0.7924,0.2807,32.8369,-50.415,-26.6113
171.872,0.2891,-0.7868,0.2819,31.4941,-48.4619,-25.7568
175.896,0.2938,-0.7836,0.2846,30.2734,-46.3867,-25.0244
179.983,0.2938,-0.7822,0.2873,28.9307,-44.3115,-24.292
183.858,0.2935,-0.7773,0.288,28.0151,-42.2974,-23.6206
188.015,0.292,-0.7743,0.2922,26.7334,-40.1001,-23.0103
191.995,0.2923,-0.7722,0.2941,25.5737,-37.9639,-22.3389
197.749,0.2933,-0.77,0.2946,24.353,-36.0107,-21.7896
200.735,0.2935,-0.7682,0.2995,23.1323,-34.1797,-21.1182
203.848,0.2952,-0.7685,0.3,21.7285,-32.3486,-20.5688
207.997,0.2964,-0.7668,0.3,21.3013,-30.5786,-20.2637
211.962,0.2933,-0.7658,0.2944,19.7144,-28.6865,-19.8364
215.896,0.2957,-0.7692,0.2959,18.5547,-27.0386,-19.6533
219.832,0.2962,-0.7695,0.2973,17.4561,-25.3296,-19.4702
223.807,0.2955,-0.7719,0.3015,16.9067,-23.6206,-19.3481
227.974,0.2955,-0.7722,0.3022,16.4185,-21.9727,-19.2261
232.562,0.294,-0.7758,0.3042,15.625,-20.5078,-19.043
235.813,0.2935,-0.7765,0.3059,14.7095,-18.7988,-18.8599
239.857,0.293,-0.7817,0.3051,14.0381,-17.5171,-18.9209
245.962,0.2911,-0.7826,0.3059,13.3667,-16.1743,-18.8599
248.999,0.2886,-0.7878,0.3098,13.3667,-14.9536,-18.9819
251.982,0.2908,-0.7917,0.3083,12.6953,-14.2822,-19.2261
255.969,0.284,-0.7951,0.3105,11.5967,-13.3667,-19.3481
259.951,0.2833,-0.8014,0.3085,11.5967,-12.8784,-19.5312
264.952,0.284,-0.8029,0.3078,11.4746,-12.7563,-19.8364
267.976,0.2842,-0.8093,0.3081,10.9863,-12.207,-20.0806
271.955,0.2859,-0.8085,0.3071,10.9863,-12.146,-20.2637
275.877,0.2899,-0.8185,0.2993,10.8643,-11.9629,-20.3857
279.871,0.2935,-0.8207,0.2956,10.498,-11.7188,-20.3857
283.851,0.2977,-0.8268,0.2949,9.7656,-11.4136,-20.5078
287.929,0.3008,-0.8325,0.2959,9.7046,-10.9253,-20.6299
291.806,0.2996,-0.8398,0.2946,9.0332,-10.7422,-20.6909
296.39,0.2974,-0.8476,0.2985,8.728,-10.376,-20.752
299.835,0.3023,-0.86,0.3002,8.606,-10.1929,-20.813
303.768,0.2955,-0.8666,0.3002,8.1787,-10.0708,-20.9351
307.76,0.2979,-0.8786,0.2998,7.8735,-9.5825,-21.1182
311.761,0.3023,-0.8837,0.2988,7.3242,-9.4604,-21.3013
315.841,0.3043,-0.8947,0.2976,7.2021,-9.5825,-21.6675
319.745,0.3108,-0.9035,0.2968,7.2021,-9.2773,-21.9116
323.783,0.3204,-0.9047,0.2956,7.5073,-8.7891,-22.3389
328.829,0.3272,-0.9101,0.2946,7.2632,-8.0566,-22.644
331.85,0.3284,-0.9152,0.2951,7.2021,-7.3242,-23.0713
335.765,0.3336,-0.9096,0.2954,7.3242,-6.2866,-23.3765
339.782,0.3355,-0.9167,0.2939,7.0801,-5.3711,-23.7427
343.777,0.3423,-0.9145,0.2924,7.5684,-3.9673,-24.1699
348.662,0.3489,-0.9089,0.2871,6.897,-2.5024,-24.5361
351.877,0.3509,-0.9116,0.2871,6.5308,-0.9766,-24.9634
355.716,0.3587,-0.9089,0.28,5.6763,0.5493,-25.5127
360.93,0.3636,-0.914,0.2727,4.1504,2.0142,-25.8179
363.934,0.365,-0.9181,0.2607,3.479,3.6011,-26.5503
367.71,0.3677,-0.9286,0.2587,1.5259,5.127,-27.0996
371.833,0.3785,-0.9406,0.2612,0.3662,7.0801,-27.771
375.755,0.3895,-0.9567,0.2631,-1.8921,8.9722,-28.3203
379.763,0.3941,-0.9758,0.2636,-3.7231,11.5967,-28.6865
383.833,0.4022,-0.9968,0.2614,-5.0049,14.2822,-29.0527
387.71,0.4017,-1.0261,0.267,-6.7749,17.334,-29.48
393.448,0.4046,-1.05,0.2697,-7.9346,20.6909,-29.8462
396.419,0.4046,-1.0746,0.2773,-8.5449,23.8037,-30.5176
399.779,0.3997,-1.0986,0.2827,-8.728,27.2827,-31.1279
403.674,0.3941,-1.1254,0.2844,-7.9956,30.6396,-31.6772
407.807,0.3856,-1.1393,0.289,-7.2021,33.6304,-32.2266
411.804,0.3758,-1.1493,0.2919,-4.8828,36.377,-32.8979
415.727,0.369,-1.1464,0.2907,-1.5869,38.7573,-33.6304
419.819,0.3624,-1.1396,0.2893,1.5869,41.0156,-34.5459
424.983,0.3533,-1.123,0.2905,5.0049,42.7246,-35.7056
428.049,0.3511,-1.0983,0.2937,9.0942,44.0063,-36.8652
431.66,0.3448,-1.0744,0.2971,12.5732,45.105,-37.9028
435.808,0.334,-1.0392,0.2937,15.625,46.0205,-39.1846
439.63,0.3296,-1.0077,0.2858,17.8833,46.2646,-40.4663
443.709,0.317,-0.9787,0.2751,19.9585,46.4478,-41.8091
448.593,0.3087,-0.9506,0.2695,21.1182,46.2036,-43.335
452.263,0.2977,-0.9311,0.2712,22.0337,45.4712,-44.9219
457.332,0.2877,-0.913,0.267,22.7661,44.3726,-46.6309
460.323,0.2747,-0.8993,0.2597,23.1323,42.8467,-48.3398
463.681,0.2647,-0.893,0.2497,23.0103,40.6494,-50.0488
467.693,0.2523,-0.8915,0.2436,22.9492,38.208,-51.6968
471.652,0.241,-0.8957,0.2368,22.7661,35.1562,-53.3447
475.774,0.2261,-0.9018,0.2258,22.7051,31.7993,-54.9927
479.709,0.2176,-0.9081,0.2141,22.8882,28.1372,-56.8237
483.738,0.2112,-0.9213,0.2058,23.8037,23.8647,-58.4106
488.911,0.211,-0.9333,0.1987,25.2686,19.8364,-59.8755
491.617,0.2098,-0.9484,0.1967,26.4282,15.8691,-61.1572
495.738,0.2083,-0.9577,0.195,27.5879,12.085,-62.1338
499.718,0.21,-0.9682,0.1948,29.2358,8.3618,-62.9272
503.566,0.2217,-0.9789,0.195,30.2734,4.8218,-63.4155
507.583,0.2271,-0.9919,0.1923,31.7993,1.4648,-63.7207
511.611,0.2303,-1.0004,0.1884,33.5083,-1.709,-64.0259
515.556,0.2327,-1.0121,0.1862,35.2783,-4.6387,-64.5142
521.411,0.233,-1.0153,0.1843,37.4756,-7.3242,-65.0024
524.393,0.2305,-1.0158,0.1821,39.5508,-10.3149,-65.3076
527.566,0.2288,-1.0197,0.1765,41.748,-13.1226,-65.4297
531.711,0.2349,-1.016,0.1706,43.7012,-15.9912,-65.1855
535.546,0.2359,-1.0121,0.1652,46.0815,-18.4326,-65.0635
539.739,0.242,-1.0097,0.1628,47.9736,-21.1182,-64.7583
543.576,0.2459,-1.0021,0.1574,49.8657,-23.3765,-64.27
547.641,0.2481,-0.9948,0.1521,51.5137,-25.4517,-63.5986
555.508,0.2479,-0.9802,0.1406,54.8706,-28.4424,-61.8896
559.691,0.251,-0.9677,0.1347,56.2134,-30.5786,-61.0352
563.566,0.2513,-0.9592,0.1303,57.1289,-32.1655,-60.0586
567.519,0.2518,-0.9479,0.1232,57.9224,-33.7524,-59.082
571.583,0.2422,-0.9396,0.1091,58.1665,-35.1562,-58.2275
575.685,0.251,-0.9299,0.1071,59.1431,-36.8042,-57.373
579.498,0.2588,-0.9262,0.1052,59.6313,-38.4521,-56.3354
583.612,0.262,-0.9181,0.0986,60.3638,-39.978,-55.542
587.993,0.2637,-0.913,0.0891,61.2183,-41.0767,-54.8096
591.601,0.2628,-0.8986,0.0805,61.7676,-42.3584,-54.2603
595.501,0.2569,-0.8908,0.071,62.1338,-44.0063,-54.0161
599.602,0.2557,-0.8764,0.0681,62.5,-45.5933,-53.6499
603.555,0.2588,-0.8618,0.06,62.6221,-47.1802,-53.1616
607.528,0.2662,-0.8513,0.0568,62.6831,-48.5229,-52.6123
611.583,0.2737,-0.8383,0.0532,62.9272,-49.6826,-52.124
615.594,0.2796,-0.8283,0.0498,62.8052,-50.415,-51.5747
620.945,0.2874,-0.8137,0.0446,62.1338,-50.9644,-51.0864
623.973,0.2916,-0.8017,0.0419,61.0352,-51.3916,-50.5371
627.523,0.2977,-0.7968,0.0378,59.2651,-51.2695,-49.8047
631.582,0.3008,-0.7897,0.0405,58.0444,-50.9033,-49.1333
635.609,0.3008,-0.7897,0.039,56.4575,-50.293,-48.2788
639.599,0.3008,-0.7858,0.0371,54.9927,-49.7437,-47.4854
643.643,0.2989,-0.7829,0.0354,53.5278,-49.0112,-46.6919
647.557,0.3013,-0.7846,0.0376,52.1851,-48.4009,-45.9595
655.277,0.2969,-0.79,0.0361,50.4761,-47.8516,-45.105
659.45,0.3038,-0.7931,0.0351,48.0347,-46.3257,-43.2739
663.487,0.3006,-0.7973,0.0322,46.4478,-45.4102,-42.2974
667.459,0.3052,-0.8014,0.0322,45.2881,-44.7388,-41.1987
671.599,0.3055,-0.8034,0.0332,43.5181,-44.0063,-39.978
675.604,0.3028,-0.8119,0.0339,42.6025,-43.2739,-38.8184
679.535,0.306,-0.8117,0.0349,41.4429,-42.6025,-37.5977
684.795,0.3065,-0.819,0.0366,40.3442,-42.1143,-36.438
687.56,0.3047,-0.8212,0.0341,39.978,-41.3818,-35.2783
691.486,0.3047,-0.8249,0.0376,38.8794,-40.9546,-34.1797
695.408,0.3062,-0.8281,0.0361,38.208,-40.5884,-32.8979
699.583,0.3072,-0.8334,0.0395,37.1094,-40.1611,-31.8604
703.545,0.3108,-0.8361,0.0412,36.9263,-39.7949,-30.7007
707.471,0.3079,-0.8381,0.0427,37.1704,-39.2456,-29.6021
711.523,0.3057,-0.8373,0.0419,36.8042,-39.3066,-28.6865
716.815,0.3067,-0.839,0.0449,36.8042,-39.3066,-27.771
719.919,0.303,-0.8386,0.0454,36.9873,-39.3677,-26.9165
723.537,0.2969,-0.8378,0.0463,37.0483,-39.6118,-26.3672
727.569,0.2923,-0.839,0.0459,37.4756,-40.2832,-25.8789
731.524,0.2942,-0.8337,0.0466,37.4756,-40.8936,-25.5127
735.529,0.2908,-0.8288,0.0505,38.3301,-41.687,-25.2686
739.476,0.2918,-0.8249,0.05,38.9404,-42.7246,-25.1465
743.446,0.293,-0.818,0.0542,39.1235,-43.7012,-25.1465
749.591,0.293,-0.8124,0.0566,40.1611,-44.7998,-25.2686
752.667,0.2894,-0.8029,0.0568,40.3442,-46.0815,-25.3906
758.091,0.2886,-0.7985,0.0612,40.1001,-47.0581,-25.5737
761.121,0.2886,-0.7919,0.0583,40.2222,-48.4009,-25.8789
764.435,0.2884,-0.7875,0.0583,40.8325,-49.8657,-26.3672
767.763,0.2899,-0.7809,0.0578,40.4663,-51.2695,-26.6724
771.352,0.2899,-0.778,0.0568,40.7715,-52.5513,-27.2217
775.506,0.2894,-0.7753,0.0556,39.978,-54.3823,-27.5879
783.903,0.2911,-0.7783,0.0583,39.978,-57.0068,-28.2593
787.473,0.2991,-0.7795,0.06,39.4287,-58.2275,-28.4424
791.408,0.3065,-0.7829,0.0588,38.7573,-59.1431,-28.5645
795.411,0.3152,-0.7868,0.0568,38.3301,-59.8145,-28.6865
799.443,0.3216,-0.7968,0.0559,38.5742,-60.5469,-28.5034
803.324,0.3284,-0.8034,0.0568,38.0859,-60.791,-28.1982
807.327,0.3311,-0.8115,0.0554,37.0483,-60.8521,-27.8931
813.195,0.3362,-0.8246,0.0566,37.4756,-60.73,-27.4658
816.527,0.345,-0.8342,0.0556,37.0483,-60.6079,-26.9775
820.003,0.3494,-0.8434,0.0578,37.5366,-60.3027,-26.4282
823.375,0.3538,-0.8525,0.0559,37.6587,-60.1807,-25.8179
827.287,0.3636,-0.86,0.0571,38.0859,-59.7534,-25.0244
831.306,0.368,-0.8674,0.0556,39.0015,-59.2651,-24.4141
835.35,0.3765,-0.8718,0.0559,38.7573,-58.4717,-23.5596
839.364,0.3731,-0.8742,0.0537,39.6729,-57.8613,-22.7661
845.282,0.3755,-0.8815,0.0515,39.978,-57.0679,-21.8506
848.376,0.3746,-0.8803,0.0524,40.9546,-56.5186,-20.9351
851.749,0.3795,-0.8762,0.0561,42.0532,-56.3354,-20.1416
855.45,0.3773,-0.8752,0.0583,42.2363,-55.9692,-19.2871
861.235,0.3751,-0.8693,0.0529,43.2129,-55.9082,-18.5547
863.853,0.3724,-0.8649,0.0566,43.6401,-56.0303,-17.8833
867.367,0.3675,-0.8605,0.0512,43.2739,-56.7627,-17.395
871.404,0.3653,-0.8532,0.0532,43.2129,-57.4341,-16.8457
877.391,0.3655,-0.8498,0.0505,43.5791,-58.5327,-16.4795
880.556,0.3707,-0.8427,0.0512,43.0908,-59.5093,-15.9912
883.815,0.3699,-0.839,0.0505,43.2739,-60.4858,-15.625
887.42,0.3738,-0.8329,0.052,43.1519,-61.7676,-15.5029
891.361,0.3746,-0.8307,0.0517,42.6025,-62.8662,-15.3198
895.277,0.3743,-0.8259,0.0493,42.8467,-64.1479,-15.2588
899.381,0.3731,-0.821,0.0471,42.0532,-65.3687,-15.2588
903.306,0.3777,-0.8215,0.0517,41.9312,-66.9556,-15.1367
907.339,0.3751,-0.8173,0.0537,41.3818,-68.4204,-15.0757
912.36,0.3765,-0.8159,0.0502,41.0767,-69.9463,-15.0757
915.379,0.3755,-0.8132,0.0546,40.4663,-71.4722,-15.1367
919.363,0.3775,-0.8085,0.0554,39.6729,-72.876,-15.2588
923.342,0.3785,-0.8088,0.0571,39.2456,-74.5239,-15.4419
927.264,0.3848,-0.8134,0.0556,38.5742,-75.9277,-15.5029
931.382,0.3907,-0.8119,0.0595,36.9873,-77.3926,-15.4419
935.303,0.3963,-0.818,0.0646,36.0718,-78.4302,-15.3809
939.323,0.4012,-0.819,0.0668,34.9731,-79.5898,-15.3198
944.621,0.4068,-0.8256,0.0717,34.1187,-80.2002,-15.2588
947.62,0.4158,-0.8329,0.0751,32.959,-80.8105,-15.0146
951.391,0.4139,-0.8383,0.0805,31.8604,-81.1768,-14.7705
955.258,0.4234,-0.8495,0.0842,31.0059,-81.1157,-14.3433
959.331,0.4297,-0.8559,0.0917,29.9683,-81.1157,-13.7939
963.625,0.4341,-0.861,0.0979,29.7852,-80.8716,-13.4888
967.225,0.4402,-0.8679,0.1049,29.48,-79.895,-12.8784
971.35,0.4434,-0.8701,0.1113,29.2358,-79.2847,-12.4512
976.473,0.4471,-0.8769,0.1186,29.4189,-78.2471,-11.7798
979.383,0.4463,-0.8757,0.1213,29.0527,-77.2705,-11.2305
983.288,0.4495,-0.8759,0.123,29.9683,-76.2329,-10.6201
987.22,0.4454,-0.8759,0.1301,29.1748,-75.1953,-9.9487
991.187,0.4522,-0.8742,0.1381,29.48,-73.9136,-9.3384
995.322,0.4515,-0.8742,0.1416,29.0527,-72.7539,-9.0332
999.18,0.4463,-0.8788,0.1452,29.1748,-72.2046,-8.7891
1003.244,0.4456,-0.8803,0.1508,28.9917,-71.4722,-8.5449
1008.664,0.4422,-0.8793,0.1547,28.8696,-71.106,-8.3008
1011.905,0.4407,-0.8884,0.1584,29.48,-71.0449,-8.3008
1015.227,0.4378,-0.893,0.1582,29.7852,-71.106,-8.2397
1019.166,0.4373,-0.9008,0.1579,30.0293,-71.5942,-8.3008
1023.268,0.4349,-0.904,0.1599,30.5786,-72.2656,-8.4839
1027.252,0.4329,-0.9089,0.1606,30.6396,-73.3643,-8.7891
1031.174,0.4337,-0.9133,0.1596,31.9214,-74.4629,-9.1553
1035.217,0.4366,-0.9172,0.1633,32.7148,-75.9277,-9.7656
1040.791,0.4366,-0.9216,0.1677,33.6304,-77.0874,-10.1929
1043.693,0.4339,-0.9196,0.166,34.4849,-78.6133,-10.6812
1047.147,0.4332,-0.9228,0.1689,35.0952,-80.2002,-11.2915
1051.133,0.4373,-0.9274,0.1706,36.0718,-81.9092,-11.9019
1055.313,0.4368,-0.9225,0.1667,37.2925,-83.4351,-12.6343
1059.214,0.4378,-0.9255,0.1669,37.2314,-85.5103,-13.4888
1064.964,0.4383,-0.923,0.1699,38.208,-87.0972,-14.2212
1067.979,0.4424,-0.923,0.1706,38.6963,-88.562,-14.8315
1072.724,0.4446,-0.9189,0.1709,39.1846,-89.9658,-15.3809
1075.982,0.4493,-0.913,0.1689,39.917,-91.3696,-16.2354
1079.253,0.4537,-0.9135,0.1743,40.4663,-92.2241,-16.9678
1083.068,0.4578,-0.9079,0.1762,40.1001,-93.1396,-17.7002
1087.233,0.4566,-0.9047,0.1772,39.978,-93.8721,-18.3105
1091.16,0.4598,-0.9028,0.1806,39.7339,-94.4214,-18.9819
1095.083,0.4625,-0.9028,0.1821,39.856,-94.6045,-19.5312
1099.07,0.4571,-0.8972,0.1833,39.3677,-94.6045,-19.8975
1104.652,0.459,-0.8964,0.1882,39.3677,-94.8486,-20.3247
1107.164,0.4634,-0.8937,0.1879,39.3677,-94.8486,-20.5078
1111.05,0.4686,-0.8862,0.1862,39.4897,-94.6045,-20.752
1115.212,0.4686,-0.8805,0.1862,39.6118,-94.4824,-20.752
1119.183,0.4686,-0.8771,0.1928,39.3066,-94.1162,-20.874
1123.128,0.4688,-0.8696,0.195,38.7573,-93.5059,-20.874
1127.131,0.4703,-0.8642,0.2019,38.208,-93.0786,-20.752
1131.129,0.4749,-0.8603,0.2016,37.9639,-92.4072,-20.6299
1135.148,0.4734,-0.8552,0.2036,37.9028,-91.3696,-20.5688
1139.987,0.4761,-0.85,0.2077,37.2314,-90.4541,-20.4468
1143.253,0.4798,-0.8471,0.2116,36.0107,-88.9893,-20.2637
1147.105,0.4847,-0.8408,0.2158,35.8276,-87.7075,-20.2026
1151.128,0.4837,-0.8315,0.2148,35.4614,-85.9985,-19.9585
1155.113,0.4832,-0.8259,0.2189,34.6069,-84.1675,-19.8364
1159.143,0.4861,-0.82,0.2238,33.7524,-82.1533,-19.6533
1163.168,0.4832,-0.8154,0.2312,34.1797,-79.9561,-19.4702
1167.781,0.4793,-0.811,0.2392,33.5083,-77.5146,-19.104
1172.695,0.4805,-0.8088,0.2451,33.02,-75.6836,-18.9209
1176.06,0.4747,-0.8007,0.2497,32.1045,-73.3643,-18.5547
1179.106,0.4749,-0.8017,0.2521,31.6162,-70.9839,-18.2495
1183.071,0.4717,-0.7978,0.2585,30.4565,-68.5425,-17.8833
1186.998,0.4708,-0.7958,0.2619,29.6021,-66.6504,-17.5781
1190.973,0.4686,-0.7971,0.2705,28.8086,-64.3311,-17.2729
1195.078,0.4676,-0.7968,0.2714,27.8931,-62.2559,-16.9678
1199.058,0.4678,-0.8,0.2775,27.2217,-60.0586,-16.6626
1203.902,0.4676,-0.8002,0.2771,26.7944,-57.6782,-16.1133
1207.222,0.4678,-0.8032,0.2797,26.3672,-55.2368,-15.686
1211.136,0.4593,-0.8122,0.2851,25.5127,-52.8564,-15.0757
1215.087,0.46,-0.8122,0.2878,26.2451,-50.4761,-14.6484
1219.057,0.4551,-0.818,0.2915,26.5503,-48.0957,-14.0991
1222.993,0.4507,-0.8188,0.2939,25.9399,-45.9595,-13.5498
1226.976,0.4466,-0.8271,0.3024,26.2451,-43.9453,-13.1836
1230.991,0.4427,-0.8249,0.3051,26.4893,-41.9922,-12.6343
1236.482,0.4344,-0.829,0.3054,26.7334,-40.4053,-12.2681
1239.431,0.4337,-0.829,0.3056,27.71,-38.8184,-11.7798
1243.057,0.4278,-0.8271,0.3085,28.3203,-37.4146,-11.4746
1247.075,0.4219,-0.8266,0.309,28.6255,-36.1938,-11.1084
1251.095,0.4192,-0.8259,0.3085,29.2969,-35.4614,-10.8643
1254.939,0.4158,-0.8259,0.3117,29.7241,-34.6069,-10.7422
1259.083,0.4058,-0.8242,0.3129,30.5786,-34.1187,-10.5591
1263.072,0.3992,-0.8232,0.3122,31.0059,-33.6914,-10.376
1270.78,0.3907,-0.8244,0.3146,31.8604,-33.7524,-10.498
1274.952,0.379,-0.8215,0.3171,33.3862,-34.3628,-10.3149
1278.956,0.3714,-0.8254,0.3173,34.3628,-35.2173,-10.437
1283.007,0.3646,-0.821,0.3186,35.1562,-36.1328,-10.6201
1286.953,0.3577,-0.8232,0.3188,36.1938,-37.2925,-10.8032
1291.072,0.3524,-0.8193,0.3198,36.7432,-38.5742,-10.9863
1295.045,0.3453,-0.8207,0.3181,37.7808,-40.3442,-11.2915
1299.022,0.3416,-0.8178,0.3176,38.8794,-42.0532,-11.6577
1303.308,0.3389,-0.8173,0.3193,39.5508,-43.9453,-11.9629
1307.005,0.3338,-0.8137,0.3176,40.5273,-45.9595,-12.2681
1310.867,0.3336,-0.8095,0.3166,41.5649,-48.2788,-12.6953
1315.058,0.3372,-0.8124,0.3134,42.4194,-50.415,-13.0615
1318.956,0.3392,-0.8051,0.3127,43.5791,-52.6733,-13.4277
1323.034,0.3379,-0.8041,0.312,44.1895,-54.9316,-13.7939
1326.967,0.3448,-0.8036,0.3103,45.2881,-56.8848,-14.0991
1330.941,0.3533,-0.8014,0.3056,45.5322,-58.7769,-14.4043
1335.862,0.3599,-0.8036,0.3059,46.3257,-60.3027,-14.7705
1339.037,0.3716,-0.8044,0.302,46.814,-61.5234,-15.1367
1342.933,0.378,-0.8107,0.2985,47.2412,-62.0728,-15.0757
1346.931,0.3843,-0.8119,0.2927,47.7295,-62.439,-15.1978
1350.854,0.3897,-0.8156,0.2878,48.2178,-62.6831,-15.3809
1355.015,0.3943,-0.8163,0.2834,48.7061,-62.6831,-15.4419
1358.968,0.3958,-0.8185,0.2788,49.6216,-62.561,-15.5029
1362.836,0.3951,-0.821,0.2751,50.7202,-62.439,-15.564
1367.709,0.3987,-0.8227,0.27,50.9033,-62.1948,-15.5029
1372.809,0.3963,-0.82,0.2648,51.6968,-62.0117,-15.5029
1376.165,0.4007,-0.8171,0.2605,52.124,-61.8286,-15.3809
1379.073,0.4056,-0.8195,0.2563,52.1851,-61.4014,-15.1978
1382.939,0.4075,-0.8202,0.2536,52.1851,-60.4858,-15.0146
1386.91,0.4105,-0.8229,0.2539,51.9409,-60.0586,-14.8315
1390.899,0.4129,-0.829,0.25,51.7578,-59.3872,-14.5874
1394.908,0.4144,-0.8351,0.2482,51.2085,-58.3496,-14.2212
1399.849,0.4195,-0.8434,0.248,51.2085,-57.1899,-13.7329
1402.97,0.4156,-0.8473,0.25,50.6592,-56.2744,-13.2446
1406.847,0.4127,-0.8581,0.2495,50.5981,-55.2979,-12.8784
1410.94,0.4117,-0.8618,0.2487,50.7202,-54.5044,-12.4512
1414.829,0.4146,-0.8679,0.2478,51.3306,-53.5889,-12.146
1418.793,0.4153,-0.8691,0.2541,51.8188,-53.0396,-11.7188
1422.875,0.4151,-0.8671,0.2536,52.1851,-52.4902,-11.4746
1426.781,0.4131,-0.8642,0.2548,53.2227,-51.8188,-11.1084
1432.212,0.4188,-0.8569,0.2558,53.2837,-51.0864,-10.7422
1435.437,0.417,-0.8549,0.2497,54.2603,-50.5371,-10.437
1438.891,0.4124,-0.8483,0.2497,54.0771,-50.0488,-10.2539
1442.812,0.4151,-0.843,0.249,54.0161,-49.4385,-10.0098
1446.823,0.4146,-0.8347,0.2473,53.772,-49.1333,-9.8877
1450.932,0.4149,-0.8307,0.2458,53.894,-48.584,-9.7656
1454.858,0.4151,-0.8303,0.2417,53.4058,-48.1567,-9.5825
1458.84,0.4109,-0.8293,0.2436,53.0396,-48.0957,-9.5825
1464.368,0.407,-0.8376,0.2421,52.2461,-48.0957,-9.6436
1467.66,0.4056,-0.8427,0.2402,51.3916,-48.0957,-9.5825
1471.912,0.4022,-0.8493,0.2385,51.4526,-48.5229,-9.7046
1476.063,0.4002,-0.862,0.238,50.6592,-49.1333,-9.8877
1478.928,0.3956,-0.8754,0.2365,50.6592,-49.6826,-10.0708
1482.783,0.3931,-0.8889,0.2399,50.5981,-50.415,-10.376
1486.716,0.3948,-0.8989,0.2397,50.9033,-51.0864,-10.6201
1490.855,0.3917,-0.9081,0.2417,51.4526,-52.063,-10.9253
1496.418,0.3926,-0.9167,0.2417,52.063,-52.8564,-11.2305
1499.403,0.3941,-0.9252,0.2431,52.9175,-53.5278,-11.4746
1502.896,0.3895,-0.9306,0.2451,53.894,-54.5654,-11.7798
1506.894,0.3892,-0.9313,0.2487,55.1147,-54.8706,-12.0239
1510.774,0.389,-0.9362,0.2473,56.0303,-55.8472,-12.3901
1514.857,0.3897,-0.9369,0.2475,57.1289,-56.7017,-12.6343
1518.794,0.3909,-0.9357,0.2492,58.1055,-57.312,-12.8784
1522.708,0.3895,-0.9326,0.248,58.8989,-58.2275,-13.2446
1528.964,0.3921,-0.934,0.2468,59.5093,-58.6548,-13.4888
1531.779,0.3926,-0.9311,0.246,60.3027,-59.5703,-13.916
1534.751,0.3931,-0.9311,0.2465,60.6079,-59.9976,-14.1602
1538.679,0.3904,-0.9299,0.2458,61.0352,-60.3638,-14.5874
1542.757,0.3917,-0.9311,0.2478,60.73,-60.5469,-15.1367
1546.722,0.3948,-0.9347,0.2482,60.73,-60.9131,-15.7471
1550.72,0.3917,-0.9355,0.2468,61.2793,-60.5469,-16.3574
1554.811,0.3912,-0.9335,0.2468,61.5845,-60.73,-17.0898
1558.829,0.3878,-0.9357,0.2485,62.1948,-60.9741,-17.8833
1563.17,0.3809,-0.9347,0.247,62.8052,-61.0352,-18.6157
1566.951,0.3843,-0.9355,0.2448,63.2935,-60.9131,-19.4702
1570.768,0.3746,-0.9279,0.2407,63.1104,-60.9741,-20.1416
1575.39,0.3768,-0.9291,0.2348,63.1104,-61.4014,-20.9351
1578.955,0.3709,-0.9326,0.2351,62.7441,-61.6455,-21.6064
1582.66,0.3677,-0.9321,0.2285,62.439,-62.0728,-22.3389
1586.659,0.3687,-0.9401,0.2233,61.1572,-62.2559,-22.7051
1590.754,0.3668,-0.9494,0.2236,60.0586,-62.9883,-23.1934
1595.542,0.3624,-0.9601,0.2187,58.6548,-63.6597,-23.4985
1598.657,0.3658,-0.9784,0.2143,57.5562,-64.0259,-23.9258
1602.648,0.367,-1.0007,0.2111,56.2134,-64.3921,-24.231
1606.781,0.367,-1.0197,0.2084,55.1758,-64.3921,-24.353
1610.66,0.3699,-1.0329,0.2094,54.3823,-64.0869,-24.4751
1614.763,0.3697,-1.0514,0.2102,54.5654,-63.9648,-24.5361
1618.644,0.3665,-1.0629,0.2128,55.2368,-63.3545,-24.4751
1622.759,0.3672,-1.0739,0.2158,55.6641,-62.6831,-24.292
1627.816,0.3663,-1.0783,0.2172,56.8848,-61.8286,-23.8037
1630.947,0.3653,-1.0737,0.2172,57.9834,-61.2183,-23.3154
1634.672,0.3633,-1.0715,0.2258,58.7769,-60.6079,-22.522
1638.709,0.3653,-1.0646,0.2272,59.021,-59.9365,-21.6675
1642.744,0.3704,-1.0549,0.2272,59.082,-59.2651,-20.6909
1646.771,0.3716,-1.0519,0.2277,57.9224,-58.6548,-19.6533
1650.598,0.3765,-1.0458,0.2248,57.4951,-57.9224,-18.6768
1654.596,0.3812,-1.0468,0.2226,55.7861,-57.1899,-17.4561
1659.727,0.3853,-1.0536,0.2182,54.0771,-56.3354,-16.3574
1662.736,0.3885,-1.0597,0.2163,52.4292,-55.2979,-15.3198
1666.757,0.3917,-1.0695,0.2114,50.9644,-54.3213,-14.2212
1670.627,0.3912,-1.0744,0.2087,50.5371,-52.9175,-13.1836
1674.663,0.3929,-1.0832,0.205,50.0488,-51.5747,-12.207
1680.08,0.3953,-1.0866,0.2065,50.0488,-50.354,-11.2305
1683.047,0.4029,-1.0842,0.2072,50.6592,-48.7061,-10.437
1686.606,0.4053,-1.0766,0.2131,51.5137,-46.875,-9.7656
1691.841,0.4131,-1.0632,0.2224,52.6123,-44.5557,-9.2163
1695.078,0.4136,-1.0471,0.2336,53.5889,-42.4805,-8.728
1698.71,0.4139,-1.0251,0.2465,54.9316,-40.2832,-8.5449
1702.726,0.4119,-0.9948,0.2563,56.3354,-37.7808,-8.5449
1706.583,0.4114,-0.9643,0.2678,57.1289,-35.4614,-8.606
1710.566,0.4127,-0.9387,0.2827,57.6782,-33.2031,-8.9722
1714.66,0.4119,-0.9084,0.2937,57.5562,-30.8228,-9.5215
1718.524,0.4095,-0.881,0.3056,57.4341,-28.3203,-10.376
1724.07,0.4058,-0.8593,0.3115,57.0679,-26.062,-11.6577
1727.143,0.4063,-0.8373,0.3168,56.7627,-23.6816,-13.0615
1730.661,0.4041,-0.8144,0.3239,55.9692,-21.6675,-14.7095
1734.622,0.4022,-0.8014,0.3276,55.542,-19.7144,-16.6016
1738.545,0.4029,-0.788,0.3291,55.8472,-18.0054,-18.7378
1742.643,0.3983,-0.7726,0.3308,55.542,-16.1133,-21.0571
1746.592,0.3951,-0.7599,0.3261,55.2979,-14.5874,-23.5596
1750.58,0.3836,-0.7541,0.3237,54.9927,-13.2446,-26.3672
1756.078,0.3704,-0.7512,0.3203,54.8706,-12.6343,-29.48
1759.01,0.366,-0.7516,0.3168,54.4434,-12.146,-32.6538
1762.542,0.356,-0.7526,0.3161,53.9551,-11.9629,-36.1328
1766.557,0.3419,-0.7599,0.3149,53.4668,-12.207,-39.5508
1770.557,0.3248,-0.77,0.3107,53.3447,-12.6953,-43.0298
1774.621,0.3099,-0.7856,0.3081,53.2837,-13.916,-46.6919
1779.474,0.2977,-0.799,0.3081,53.2227,-15.5029,-50.354
1783.16,0.2835,-0.8171,0.3037,53.1006,-17.5171,-54.1992
1788.123,0.2713,-0.8344,0.3012,54.0161,-19.6533,-58.1665
1791.076,0.2613,-0.8544,0.2976,54.7485,-22.0947,-61.7676
1794.515,0.254,-0.8754,0.2968,56.0303,-24.9634,-65.4297
1798.605,0.2442,-0.8891,0.2937,57.1899,-27.9541,-68.8477
1802.603,0.2379,-0.9055,0.2941,58.96,-31.1279,-72.1436
1806.567,0.2298,-0.9186,0.2893,60.791,-34.4849,-75.3174
1810.5,0.2283,-0.9282,0.2873,62.9272,-38.208,-78.2471
1814.481,0.2164,-0.9409,0.2871,65.1245,-41.5649,-80.8105
1819.892,0.2144,-0.9426,0.2827,67.3218,-45.105,-83.1299
1822.593,0.2112,-0.946,0.2778,69.8242,-48.584,-85.2661
1826.516,0.2056,-0.9401,0.2714,72.0825,-52.002,-87.2192
1830.545,0.1993,-0.934,0.2653,74.2188,-55.4199,-88.8062
1834.498,0.1988,-0.9279,0.2614,75.8057,-58.96,-90.271
1838.437,0.2012,-0.915,0.2529,77.2095,-62.3779,-91.5527
1842.432,0.199,-0.9084,0.2473,78.186,-65.5518,-92.5903
1846.566,0.2039,-0.8986,0.2421,79.5898,-68.7256,-93.5059
1852.321,0.2059,-0.883,0.236,80.1392,-71.8994,-94.2383
1855.322,0.2081,-0.8718,0.2287,81.0547,-74.7681,-94.9707
1858.557,0.2122,-0.8613,0.2226,81.604,-77.0874,-95.459
1862.567,0.2115,-0.8505,0.2224,81.543,-79.2847,-95.8252
1866.509,0.2205,-0.8347,0.2167,81.4209,-81.3599,-96.3135
1870.498,0.2239,-0.8268,0.2133,81.4819,-82.9468,-96.6187
1874.427,0.2274,-0.8129,0.2111,81.2988,-84.0454,-96.7407
1878.427,0.2305,-0.8017,0.2126,80.7495,-85.022,-96.9238
1885.733,0.2359,-0.7897,0.2106,80.3223,-85.8154,-97.0459
1888.692,0.2415,-0.7768,0.2136,79.6509,-85.9375,-97.1069
1891.732,0.2447,-0.7636,0.2116,78.9185,-85.4492,-97.1069
1894.712,0.2508,-0.7541,0.2109,78.0029,-84.5947,-96.9849
1898.536,0.2537,-0.7372,0.2148,77.3926,-83.4961,-96.7407
1902.404,0.2559,-0.7214,0.2187,76.5991,-82.0312,-96.4966
1906.501,0.2591,-0.714,0.2241,75.6226,-80.3223,-96.1914
1910.458,0.2618,-0.697,0.2265,74.707,-78.2471,-95.8252
1914.405,0.2591,-0.6838,0.2282,73.3643,-75.9888,-95.3979
1918.665,0.2628,-0.6669,0.2251,72.2046,-73.6084,-94.8486
1922.502,0.2625,-0.6508,0.2211,71.106,-71.0449,-94.0552
1926.349,0.2596,-0.6393,0.2221,69.8853,-68.2983,-93.2007
1930.395,0.262,-0.6308,0.2189,68.1763,-65.6738,-92.1021
1934.515,0.2537,-0.6171,0.2185,65.979,-62.8662,-90.8813
1938.504,0.2471,-0.6152,0.2163,63.7207,-60.4248,-89.5386
1942.355,0.2376,-0.611,0.217,61.6455,-57.5562,-87.9517
1946.33,0.2247,-0.6086,0.2163,59.5093,-55.603,-86.4258
1951.312,0.2137,-0.6113,0.2221,57.312,-53.4668,-84.7168
1954.399,0.2034,-0.6183,0.2272,56.0913,-52.124,-83.1909
1958.351,0.1944,-0.6188,0.2334,54.1992,-51.1475,-81.665
1962.501,0.1832,-0.6257,0.2363,53.0396,-50.293,-79.9561
1966.327,0.171,-0.6247,0.2414,52.4292,-49.9268,-78.4302
1970.462,0.1695,-0.6298,0.2451,51.3916,-49.6826,-76.7822
1974.418,0.1605,-0.624,0.25,50.2319,-49.9878,-75.0122
1978.342,0.1561,-0.6262,0.2575,49.3774,-50.2319,-73.3032
1985.128,0.1536,-0.6266,0.2622,47.7295,-50.5371,-71.3501
1988.771,0.1539,-0.6291,0.2661,46.3257,-50.8423,-69.0918
1992.219,0.1522,-0.6298,0.2731,44.8608,-50.9033,-66.7725
1995.14,0.1546,-0.6327,0.2788,43.5181,-51.6968,-64.5752
1998.347,0.1504,-0.6386,0.2934,41.9922,-52.1851,-62.3169
2002.278,0.15,-0.6476,0.3042,40.7715,-52.5513,-60.1196
2006.344,0.1504,-0.6564,0.3142,39.2456,-52.7954,-57.8003
2010.328,0.1485,-0.663,0.3249,38.208,-53.833,-55.2979
2015.222,0.1507,-0.6743,0.3359,37.5977,-54.4434,-52.8564
2018.354,0.1541,-0.6791,0.3447,36.8652,-54.9927,-50.415
2022.361,0.1551,-0.6872,0.3481,36.499,-55.6641,-47.9126
2026.323,0.1612,-0.6877,0.3518,36.2549,-56.0303,-45.2271
2030.352,0.1673,-0.694,0.3537,36.2549,-56.4575,-42.7856
2034.382,0.1722,-0.694,0.3562,36.1938,-56.9458,-40.3442
2038.349,0.1712,-0.6911,0.3562,36.6821,-57.0068,-37.9028
2042.343,0.1756,-0.6877,0.3591,36.6211,-57.1289,-35.4004
2047.294,0.1732,-0.6882,0.3562,36.438,-57.312,-33.1421
2050.425,0.1758,-0.6838,0.3576,36.377,-57.6172,-31.0669
2054.321,0.1839,-0.6779,0.3593,35.8887,-58.1055,-28.9307
2058.297,0.1861,-0.6782,0.3603,35.9497,-58.4717,-26.9775
2062.29,0.19,-0.6713,0.3588,35.7666,-59.021,-25.1465
2066.295,0.1915,-0.6647,0.3615,35.8276,-59.7534,-23.1934
2070.283,0.2015,-0.6611,0.3652,35.4004,-60.4248,-21.3623
2074.298,0.2051,-0.6523,0.371,35.8887,-61.3403,-19.6533
2080.289,0.2068,-0.642,0.3781,35.0952,-62.1338,-17.9443
2083.298,0.211,-0.6359,0.3859,34.3628,-63.1714,-16.4795
2088.921,0.2166,-0.632,0.3969,34.1797,-64.0869,-15.0146
2091.951,0.223,-0.6254,0.4033,32.4707,-64.9414,-13.5498
2094.854,0.2293,-0.6213,0.4096,30.8228,-65.979,-12.2681
2098.353,0.2354,-0.6225,0.414,28.8086,-66.8335,-10.9863
2102.382,0.2457,-0.6264,0.4177,25.7568,-67.1387,-9.8267
2106.212,0.2518,-0.6359,0.4201,23.6206,-67.749,-8.7891
2111.535,0.2569,-0.6459,0.4265,21.6675,-67.9321,-7.6904
2114.476,0.2576,-0.6642,0.4316,18.7378,-68.0542,-6.3477
2118.197,0.2637,-0.6806,0.4387,16.8457,-68.1763,-5.127
2122.201,0.2681,-0.697,0.4458,15.5029,-68.4814,-3.9062
2126.187,0.2713,-0.715,0.456,13.9771,-68.3594,-2.7466
2130.29,0.2801,-0.7328,0.4648,13.4888,-68.5425,-1.6479
2134.244,0.2964,-0.7429,0.4719,12.5732,-68.2983,-0.4883
2138.35,0.3079,-0.7529,0.4753,12.3291,-67.688,0.6714
2143.858,0.3231,-0.7639,0.4707,12.2681,-67.0166,2.0142
2146.9,0.3292,-0.77,0.4711,11.6577,-66.1011,3.418
2150.344,0.3433,-0.7692,0.4724,12.9395,-64.8804,4.6997
2154.258,0.347,-0.7734,0.4721,12.8174,-63.1714,6.2256
2158.243,0.3531,-0.7743,0.4687,13.4277,-61.7676,7.7515
2162.268,0.3646,-0.7748,0.4653,13.7329,-60.3638,9.0942
2166.24,0.3709,-0.7729,0.4616,14.8315,-59.1431,10.3149
2170.278,0.3826,-0.7726,0.4624,15.1367,-57.6782,11.4746
2175.798,0.3931,-0.7704,0.4584,15.0757,-56.3354,12.5732
2178.75,0.4004,-0.7673,0.455,15.1367,-55.2368,13.5498
2182.153,0.4078,-0.768,0.4519,14.7705,-54.1992,14.5264
2186.22,0.4134,-0.7714,0.4465,15.0146,-53.5278,15.3198
2191.541,0.4224,-0.7741,0.4448,14.5264,-53.1616,15.9912
2194.516,0.4251,-0.7809,0.4448,14.8926,-52.7344,16.5405
2198.121,0.4349,-0.7841,0.4399,14.9536,-52.4292,17.0898
2202.233,0.4451,-0.7929,0.4345,14.8315,-52.4292,17.4561
2207.975,0.4564,-0.8027,0.4272,15.7471,-52.2461,17.5171
2210.973,0.4629,-0.8058,0.4226,15.4419,-52.1851,17.5781
2214.233,0.4712,-0.8163,0.4177,16.1133,-52.124,17.334
2218.131,0.4803,-0.8234,0.4147,16.2354,-51.7578,17.2119
2222.264,0.4886,-0.8349,0.4106,16.5405,-51.4526,17.1509
2226.268,0.4976,-0.8408,0.4089,16.6626,-51.1475,16.8457
2230.129,0.5081,-0.851,0.4064,16.4795,-50.7812,16.6016
2234.141,0.5154,-0.8627,0.4008,16.3574,-50.5371,16.1743
2240.037,0.5242,-0.871,0.3967,15.9302,-50.1709,15.7471
2243.136,0.535,-0.8827,0.3852,15.5029,-49.7437,15.3809
2246.162,0.5423,-0.8947,0.3796,15.2588,-49.4385,14.8926
2250.078,0.5501,-0.9123,0.3718,14.4653,-49.6216,14.6484
2254.098,0.5594,-0.9247,0.3591,14.4653,-49.6826,14.3433
2258.223,0.5645,-0.9435,0.351,12.9395,-49.5605,14.3433
2262.068,0.5755,-0.9665,0.3403,11.3525,-49.6826,14.2212
2266.093,0.5872,-0.9916,0.3322,10.0098,-49.4385,14.0381
2270.236,0.5962,-1.0214,0.3264,8.1787,-49.0723,13.9771
2275.178,0.6089,-1.0507,0.3154,6.7749,-48.4619,13.7939
2278.213,0.6155,-1.0817,0.3095,5.8594,-47.1191,13.6719
2282.143,0.6185,-1.1166,0.3032,4.6387,-46.0205,13.4888
2286.164,0.6255,-1.1452,0.2973,4.3335,-44.3115,13.4277
2290.241,0.6343,-1.1723,0.2929,5.0049,-42.4805,13.3667
2294.112,0.6478,-1.1943,0.2905,5.7373,-40.5884,13.1836
2298.036,0.6539,-1.2055,0.2861,6.958,-38.3911,13.1226
2302.142,0.6666,-1.2175,0.2785,8.4839,-36.0718,13.0005
2307.029,0.6732,-1.227,0.2771,9.3994,-33.6914,12.8174
2310.055,0.6785,-1.2309,0.2763,10.1318,-31.1279,12.6343
2314.02,0.6929,-1.2306,0.2822,10.9253,-28.1982,12.3901
2318.167,0.7015,-1.2294,0.2878,10.1929,-24.7192,11.9019
2322.121,0.7064,-1.2304,0.2946,10.498,-21.2402,11.3525
2326.017,0.7095,-1.2309,0.3015,10.0098,-17.0288,10.6812
2329.992,0.7137,-1.228,0.3127,10.3149,-12.8174,9.7656
2334.07,0.7117,-1.2297,0.3173,10.8032,-8.2397,8.7891
2338.652,0.7149,-1.2206,0.3215,11.9019,-3.3569,7.5073
2342.281,0.7147,-1.2097,0.322,13.855,1.2817,5.9814
2346.035,0.7129,-1.1933,0.323,16.6016,6.1035,4.2114
2350.068,0.7064,-1.1635,0.3261,19.7754,10.498,2.2583
2354.055,0.6998,-1.133,0.3339,23.8647,15.0146,0.061
2358.063,0.6866,-1.0988,0.3325,26.123,20.0195,-1.9531
2362.019,0.6773,-1.0571,0.3244,28.8696,24.5361,-4.4556
2366.046,0.6595,-1.0165,0.3154,31.4941,27.8931,-7.2021
2371.18,0.65,-0.9777,0.3105,32.5928,31.1279,-9.8877
2374.496,0.6285,-0.9433,0.3044,33.6304,33.5693,-13.1226
2378.001,0.6104,-0.9201,0.2949,33.7524,35.3394,-16.4185
2382.097,0.5865,-0.8928,0.2819,33.6914,36.8042,-19.7754
2386.145,0.5616,-0.8781,0.2697,33.0811,37.1704,-23.1934
2389.973,0.543,-0.8715,0.2551,31.7993,37.0483,-26.5503
2395.016,0.5286,-0.8742,0.2417,30.0903,36.499,-29.9072
2398.543,0.5086,-0.8891,0.2224,28.0151,35.2173,-33.0811
2403.488,0.4991,-0.9094,0.2084,26.7944,33.8745,-36.1328
2406.463,0.4903,-0.9387,0.1926,25.5127,31.9824,-38.9404
2410.013,0.4864,-0.9699,0.1821,25.5127,30.0903,-41.5649
2413.97,0.4817,-1.0043,0.173,26.3672,28.4424,-43.8843
2418.045,0.4774,-1.0319,0.1713,27.771,26.5503,-45.8374
2422.033,0.4761,-1.0597,0.1723,30.3345,24.9023,-47.6685
2425.956,0.4661,-1.079,0.1704,33.0811,23.4985,-48.8281
2429.973,0.4642,-1.0922,0.1684,36.1938,22.2168,-49.8657
2435.172,0.462,-1.0964,0.1645,39.0015,21.3013,-50.4761
2438.093,0.4598,-1.1059,0.1672,41.5649,19.8364,-51.0864
2442.009,0.4595,-1.1061,0.1743,44.2505,18.6768,-51.4526
2446.057,0.4617,-1.101,0.1782,45.7764,18.0054,-51.2085
2449.971,0.4612,-1.1032,0.1828,48.0347,17.0288,-50.7812
2453.937,0.4632,-1.0961,0.184,50.0488,16.4795,-50.293
2457.963,0.4595,-1.0868,0.187,51.2695,15.8081,-49.6216
2462.07,0.4522,-1.0861,0.1816,53.4058,14.8926,-49.0723
2467.591,0.4483,-1.0751,0.1789,54.8096,13.7329,-48.7061
2471.067,0.4427,-1.0663,0.174,56.0303,12.3901,-48.4009
2474.108,0.4432,-1.0475,0.1713,57.9224,11.2305,-48.2788
2478.019,0.4398,-1.0348,0.166,59.6313,10.1318,-48.3398
2481.973,0.4322,-1.0138,0.1601,61.1572,8.7891,-48.5229
2485.888,0.4268,-0.9936,0.1535,62.6221,7.8125,-49.0112
2489.905,0.4258,-0.9697,0.1435,64.0869,6.4087,-49.3774
2493.979,0.4241,-0.9443,0.1384,65.4297,5.0659,-50.1709
2500.889,0.4224,-0.9174,0.1245,66.5283,3.6621,-50.9644
2504.072,0.4197,-0.8859,0.1171,67.0776,2.5024,-51.9409
2507.229,0.4161,-0.8632,0.1132,67.688,1.1597,-53.1616
2510.139,0.408,-0.8368,0.1076,68.2983,0.0,-54.6265
2513.889,0.4014,-0.8139,0.1071,67.8711,-1.3428,-56.0303
2517.905,0.3939,-0.7966,0.1069,67.3828,-2.9297,-57.6172
2522.02,0.3865,-0.7751,0.1018,66.7114,-4.6997,-59.3872
2525.902,0.3755,-0.7617,0.0974,66.2842,-6.5918,-61.2793
2529.818,0.3748,-0.7458,0.0976,65.2466,-8.4229,-63.2935
2533.991,0.3724,-0.7331,0.0979,64.4531,-10.2539,-65.5518
2537.929,0.366,-0.7204,0.0996,63.5376,-12.146,-67.749
2541.854,0.3643,-0.7106,0.1003,62.8662,-13.6108,-69.9463
2545.895,0.3646,-0.7016,0.102,62.5,-14.8926,-72.0215
2550.007,0.3653,-0.6904,0.1015,61.2793,-16.1743,-73.9746
2553.911,0.3655,-0.6833,0.104,60.8521,-16.7847,-75.9277
2557.889,0.3663,-0.6716,0.1047,60.0586,-17.7002,-77.7588
2561.85,0.3665,-0.6606,0.1062,59.1431,-18.3105,-79.3457
2566.671,0.3677,-0.6515,0.1035,58.6548,-18.6157,-80.8105
2570.018,0.3712,-0.6425,0.1081,58.6548,-18.3716,-81.9092
2573.805,0.3687,-0.6357,0.1103,56.8848,-17.6392,-82.7637
2577.803,0.3692,-0.6262,0.1105,55.7861,-16.9678,-83.4961
2581.834,0.3692,-0.6196,0.1142,54.3213,-15.686,-84.1064
2585.816,0.3709,-0.6125,0.1181,53.2837,-14.2212,-84.6558
2589.95,0.3753,-0.6086,0.1174,52.8564,-12.7563,-84.9609
2593.814,0.3746,-0.6056,0.1208,51.6968,-10.9253,-85.083
2600.97,0.378,-0.6027,0.1193,50.5371,-9.1553,-85.2051
2603.981,0.3785,-0.6052,0.1176,49.4995,-6.958,-85.022
2607.0,0.3765,-0.6039,0.1164,48.0957,-5.0659,-84.5947
2609.986,0.3785,-0.6059,0.1203,47.4243,-3.7231,-84.2896
2613.811,0.3795,-0.6044,0.1284,46.5088,-2.3804,-83.8623
2617.761,0.3809,-0.6056,0.1306,46.0205,-1.0376,-83.4351
2621.804,0.3797,-0.6091,0.1323,44.5557,0.061,-82.5806
2625.81,0.3782,-0.6081,0.135,44.0063,0.9766,-81.665
2630.748,0.3736,-0.6081,0.1289,43.2739,1.4648,-80.6885
2634.187,0.376,-0.6071,0.1223,42.6636,1.77,-79.834
2637.92,0.3785,-0.603,0.1184,42.1753,2.6855,-78.6743
2641.814,0.3873,-0.6066,0.1174,40.7104,3.3569,-77.6978
2645.837,0.4075,-0.6054,0.1191,39.917,4.7607,-76.4771
2649.765,0.4244,-0.6066,0.1171,39.1235,5.9814,-75.1343
2653.784,0.4463,-0.6081,0.1235,38.208,7.9346,-73.6084
2657.886,0.4629,-0.6115,0.1311,37.5977,10.8643,-71.9604
2663.138,0.4795,-0.6191,0.1406,36.377,14.4043,-70.3125
2666.307,0.4932,-0.6203,0.1423,35.0342,18.3716,-68.2983
2669.707,0.5015,-0.622,0.1457,34.8511,22.7051,-66.5283
2673.719,0.5064,-0.6262,0.1501,34.1187,27.0386,-64.7583
2677.851,0.5081,-0.6298,0.1577,32.7759,30.8838,-62.9883
2681.792,0.5096,-0.6357,0.1626,32.0435,34.1797,-61.6455
2685.791,0.5023,-0.6406,0.1672,31.311,37.6587,-60.3638
2689.81,0.4996,-0.6428,0.1757,30.1514,40.1001,-59.2041
2695.597,0.4976,-0.6481,0.184,29.1138,42.2363,-58.2275
2698.545,0.4969,-0.6501,0.1953,28.4424,43.7012,-57.312
2703.945,0.4935,-0.6589,0.2146,27.4048,44.8608,-56.5796
2706.878,0.494,-0.6616,0.2287,26.2451,45.6543,-55.7861
2709.889,0.4944,-0.6625,0.2453,25.5127,45.8984,-55.4199
2713.71,0.4947,-0.6677,0.26,24.7803,45.9595,-54.8706
2717.809,0.4959,-0.6774,0.2749,24.4751,45.7153,-54.5044
2721.835,0.4918,-0.683,0.2905,23.3765,45.3491,-54.0771
2727.127,0.4859,-0.6894,0.3046,23.0103,44.7998,-53.772
2730.123,0.4798,-0.696,0.3142,22.583,43.7012,-53.5889
2733.851,0.4739,-0.7033,0.3288,22.4609,42.1143,-53.4668
2737.722,0.4659,-0.7106,0.3349,22.7661,39.917,-53.2227
2741.732,0.4568,-0.7189,0.3422,22.7051,37.2925,-53.2227
2745.693,0.4495,-0.7228,0.3503,23.2544,34.4238,-53.2837
2749.778,0.4549,-0.7311,0.3591,23.4985,31.25,-53.4668
2753.771,0.4578,-0.7331,0.361,24.1699,27.8931,-53.7109
2759.136,0.4634,-0.7338,0.3652,24.9634,24.1699,-54.1382
2762.164,0.4749,-0.738,0.3703,25.8789,21.0571,-54.5654
2765.715,0.4876,-0.7377,0.3693,26.2451,18.2495,-54.8096
2769.618,0.501,-0.7346,0.3701,26.4282,15.7471,-55.1758
2773.704,0.5147,-0.7426,0.3693,27.1606,13.5498,-55.2979
2777.66,0.522,-0.7433,0.364,28.0151,11.7798,-55.542
2781.781,0.5298,-0.7426,0.3581,28.3203,11.0474,-55.7251
2785.709,0.543,-0.7509,0.3562,28.8696,10.8032,-55.9082
2791.215,0.5569,-0.7519,0.3574,30.2734,10.6201,-56.0913
2794.252,0.576,-0.7565,0.3581,31.0059,11.0474,-56.3354
2797.921,0.5953,-0.7621,0.3601,31.6162,12.6953,-56.4575
2801.806,0.6182,-0.7668,0.3627,33.2031,15.3809,-56.7627
2806.125,0.6395,-0.77,0.3669,33.3252,18.3105,-56.8848
2809.658,0.6512,-0.7775,0.3752,33.7524,22.0947,-57.0679
2813.651,0.6595,-0.7892,0.384,34.6069,26.3062,-57.1899
2817.773,0.66,-0.7919,0.394,35.5835,30.2734,-57.373
2823.322,0.6544,-0.7978,0.4003,36.6821,34.5459,-57.5562
2826.405,0.6382,-0.8019,0.4108,37.9028,38.7573,-57.8003
2829.751,0.6221,-0.8022,0.4204,39.0015,42.4805,-58.1055
2833.582,0.6038,-0.7975,0.4279,39.978,45.7153,-58.5938
2837.568,0.5821,-0.7897,0.4348,41.1987,48.1567,-59.5093
2841.583,0.567,-0.7824,0.4377,42.3584,49.7437,-60.6689
2845.682,0.5496,-0.7753,0.4414,42.7856,50.5371,-61.7676
2849.66,0.5374,-0.7621,0.4458,42.9077,50.9033,-62.9883
2855.369,0.5206,-0.7514,0.4528,43.0908,50.4761,-64.4531
2858.666,0.5093,-0.7402,0.4543,42.9077,49.4385,-65.979
2861.633,0.5008,-0.7306,0.4577,41.8701,48.584,-67.1997
2865.56,0.4898,-0.7238,0.4616,40.4663,47.3022,-68.3594
2869.594,0.4817,-0.718,0.4614,38.8794,45.5933,-69.397
2873.594,0.4693,-0.716,0.4633,36.7432,43.7622,-70.3125
2877.525,0.4617,-0.7216,0.4658,34.9731,41.626,-71.0449
2881.536,0.4576,-0.7289,0.4714,33.0811,39.5508,-71.4722
2885.579,0.4515,-0.7414,0.4736,30.7617,37.4756,-71.5942
2889.553,0.4459,-0.7575,0.4782,28.6255,35.2783,-71.7163
2893.65,0.4456,-0.7748,0.4814,26.5503,33.02,-71.5332
2897.566,0.4505,-0.7951,0.4895,24.7803,30.8228,-71.2891
2901.621,0.4495,-0.8185,0.4875,23.6206,28.9307,-70.8618
2906.395,0.4561,-0.8415,0.4917,22.8271,27.5269,-70.3125
2909.912,0.4634,-0.8583,0.4931,22.3999,26.3672,-69.7632
2913.658,0.4766,-0.8796,0.4868,22.0947,25.8789,-69.1528
2917.606,0.4883,-0.8945,0.4772,22.3999,26.3672,-68.2983
2922.558,0.5045,-0.9011,0.4682,23.0713,26.9775,-67.1997
2925.637,0.5208,-0.913,0.4658,23.1323,28.0151,-65.7349
2929.648,0.5347,-0.9247,0.4599,23.9258,29.9683,-64.0869
2933.651,0.5418,-0.9286,0.4567,24.292,31.7993,-62.1948
2937.651,0.5467,-0.9448,0.455,24.292,33.6914,-60.1196
2941.556,0.5501,-0.9567,0.4582,23.2544,34.9731,-57.9834
2945.583,0.5472,-0.9736,0.4663,22.7661,36.438,-55.8472
2949.478,0.5494,-0.9946,0.4775,22.2168,37.4756,-53.894
2954.805,0.5504,-1.0141,0.4851,21.4844,38.269,-52.002
2958.026,0.5442,-1.0368,0.4936,21.3623,38.6353,-50.293
2961.628,0.5381,-1.0561,0.4995,21.6675,38.8184,-48.9502
2965.542,0.5357,-1.07,0.5056,22.8271,38.8794,-47.9736
2969.486,0.5289,-1.0805,0.5126,25.3296,38.5742,-47.4854
2973.472,0.5245,-1.0773,0.5173,27.9541,38.4521,-47.1802
2977.506,0.5223,-1.0666,0.5217,31.0059,37.9639,-47.0581
2981.61,0.5201,-1.0431,0.5285,34.729,37.4146,-47.4243
2986.539,0.5074,-1.0092,0.5383,38.7573,36.6821,-48.0347
2989.568,0.5008,-0.968,0.5441,42.4805,35.9497,-48.8892
2993.531,0.4942,-0.9191,0.5495,45.2881,34.6069,-50.2319
2997.551,0.4893,-0.8708,0.552,48.0957,33.2642,-51.8188
3001.57,0.4727,-0.8227,0.5542,49.3164,31.3721,-53.6499
3005.427,0.47,-0.7729,0.5434,50.2319,29.0527,-55.7861
3010.612,0.4669,-0.7294,0.5339,50.5371,26.8555,-58.1665
3013.706,0.4583,-0.6943,0.5197,50.5371,24.353,-60.9741
3018.647,0.4561,-0.6638,0.5102,49.6826,21.6064,-63.7207
3021.657,0.4573,-0.6386,0.4985,48.7671,19.043,-66.6504
3025.527,0.4588,-0.6208,0.4824,47.1802,16.7847,-69.7632
3029.425,0.4586,-0.6115,0.4694,45.2881,14.4043,-72.6318
3033.436,0.46,-0.6069,0.456,43.6401,12.2681,-75.5005
3037.444,0.4671,-0.6083,0.4492,41.5039,10.5591,-78.3691
3041.542,0.4791,-0.6203,0.4426,39.5508,10.1318,-80.8716
3045.529,0.5001,-0.6403,0.4333,37.7197,10.437,-83.1909
3050.348,0.5198,-0.6552,0.4267,36.0718,11.1694,-85.083
3053.429,0.5418,-0.6777,0.4111,34.729,12.5732,-86.5479
3057.365,0.5552,-0.6996,0.4011,33.3252,14.8926,-87.7075
3061.529,0.5611,-0.7214,0.3933,33.2031,18.0664,-88.501
3065.543,0.5657,-0.7409,0.3894,33.8745,21.9116,-89.1113
3069.545,0.5684,-0.7494,0.3842,35.2783,26.5503,-89.3555
3073.523,0.5604,-0.7519,0.3813,37.4146,31.1279,-89.1724
3077.42,0.5567,-0.7507,0.3952,39.3066,36.0107,-88.7451
3082.767,0.5477,-0.7411,0.4099,41.1377,40.9546,-88.1348
3085.753,0.5396,-0.7243,0.4157,42.7246,45.166,-87.5854
3089.442,0.525,-0.7067,0.4245,42.7246,48.9502,-86.9751
3093.35,0.5115,-0.6862,0.4323,42.8467,52.3682,-86.2427
3097.534,0.4983,-0.6681,0.4396,42.1143,54.9316,-85.5103
3101.397,0.4849,-0.6557,0.4443,40.4053,57.0068,-84.7778
3105.5,0.4744,-0.641,0.4445,38.208,57.9834,-84.0454
3109.51,0.4629,-0.6305,0.4431,36.3159,58.8989,-83.313
3115.369,0.4554,-0.621,0.4387,34.6069,58.8379,-82.5806
3118.355,0.4483,-0.6147,0.4287,32.2266,58.3496,-81.8481
3121.411,0.4354,-0.6081,0.4191,30.2734,57.373,-81.2378
3125.323,0.428,-0.5991,0.4045,28.6255,55.4199,-80.7495
3129.429,0.4227,-0.5959,0.3991,27.771,52.9785,-80.4443
3133.449,0.4092,-0.5937,0.394,26.2451,49.6216,-80.2002
3137.48,0.4048,-0.5864,0.3876,25.8789,46.0205,-80.2612
3141.401,0.4012,-0.5771,0.3872,25.3296,42.0532,-80.3223
3146.661,0.4012,-0.5744,0.3862,24.5972,37.4756,-80.5054
3149.355,0.4109,-0.5705,0.3876,23.6816,33.0811,-80.6274
3153.414,0.4234,-0.5673,0.3935,23.0713,28.9307,-80.9326
3157.345,0.4354,-0.5676,0.4025,21.6064,25.5127,-80.8105
3161.347,0.4556,-0.5673,0.414,20.3247,22.4609,-80.6885
3165.323,0.4671,-0.5715,0.4299,18.5547,19.7754,-80.5664
3169.296,0.4764,-0.5761,0.4423,17.7002,18.1885,-80.5054
3173.32,0.4852,-0.5859,0.4545,16.9067,17.2119,-80.3833
3179.034,0.493,-0.5942,0.4655,16.2964,16.4185,-80.1392
3181.968,0.5001,-0.6008,0.477,16.2964,15.7471,-80.0171
3185.358,0.5098,-0.6052,0.4921,16.3574,15.8691,-79.7729
3189.339,0.5169,-0.6022,0.5019,16.6626,16.2964,-79.5288
3193.275,0.5211,-0.6044,0.507,16.9678,16.8457,-79.3457
3197.262,0.5298,-0.6,0.5105,16.9678,17.5781,-79.2847
3201.365,0.534,-0.5942,0.5151,16.6016,18.4937,-79.0405
3205.275,0.5357,-0.5969,0.5175,16.4185,19.6533,-79.1626
3209.234,0.543,-0.5937,0.5188,16.2354,21.3013,-79.2236
3216.503,0.5508,-0.5905,0.519,16.2354,23.4375,-79.3457
3219.558,0.5606,-0.5898,0.5229,16.3574,25.8179,-79.4067
3222.531,0.5696,-0.5908,0.5249,16.5405,29.1138,-79.4678
3225.436,0.5765,-0.5927,0.5268,16.1743,32.2266,-79.7119
3229.242,0.5743,-0.5973,0.5263,16.4795,35.5835,-79.895
3233.309,0.5709,-0.6,0.5227,16.5405,38.9404,-80.3223
3237.352,0.5657,-0.6083,0.5266,16.9067,41.626,-80.6885
3241.204,0.5552,-0.6113,0.5332,17.5171,44.0063,-81.3599
3245.364,0.5413,-0.621,0.5393,18.3105,46.3257,-81.9702
3250.278,0.5223,-0.6247,0.5454,19.043,47.9736,-82.6416
3253.356,0.5108,-0.6293,0.5466,20.0195,48.8281,-83.4961
3257.237,0.4971,-0.6269,0.5524,21.4844,48.7671,-84.4727
3261.364,0.492,-0.6286,0.5576,22.2168,48.7061,-85.6934
3265.301,0.4891,-0.6264,0.5646,23.2544,48.4009,-87.0972
3269.321,0.4893,-0.6198,0.5705,24.353,47.6685,-88.4399
3273.285,0.4791,-0.6205,0.5781,25.5127,47.3633,-89.4165
3277.35,0.4671,-0.6213,0.5874,25.6348,46.2646,-90.5762
3282.383,0.451,-0.6169,0.5896,25.8789,45.3491,-91.9189
3285.463,0.439,-0.6113,0.592,26.3672,44.0063,-93.1396
3289.369,0.4273,-0.6064,0.5861,27.3438,42.4194,-94.5435
3293.275,0.4217,-0.6008,0.5849,27.3438,40.7104,-95.7642
3297.18,0.417,-0.5964,0.5798,27.5269,38.7573,-96.9849
3301.183,0.4156,-0.5932,0.5761,28.0762,36.9873,-98.2056
3305.187,0.4192,-0.592,0.5756,28.3203,35.4004,-99.3042
3309.261,0.42,-0.5922,0.5737,28.0762,34.3018,-100.2808
3316.228,0.4214,-0.5905,0.5676,28.3203,33.7524,-101.0742
3319.808,0.4212,-0.5915,0.5654,28.9307,33.0811,-101.7456
3322.821,0.4195,-0.5942,0.5654,29.2358,32.7759,-102.2339
3325.741,0.4188,-0.5944,0.5671,29.541,32.6538,-102.9053
3329.262,0.4205,-0.5903,0.5686,30.8228,32.5317,-103.5767
3333.299,0.4258,-0.5951,0.5759,31.4331,32.7148,-104.126
3337.298,0.4307,-0.5942,0.5888,32.3486,33.1421,-104.6143
3341.254,0.4398,-0.6044,0.5961,32.5928,34.0576,-104.8584
3345.995,0.4454,-0.6061,0.604,33.0811,35.6445,-104.9194
3349.306,0.4517,-0.61,0.6069,33.8745,37.9028,-104.8584
3353.186,0.4566,-0.6127,0.6118,34.1797,39.917,-104.5532
3357.278,0.4586,-0.6147,0.6184,34.8511,42.1143,-104.3091
3361.19,0.4581,-0.6157,0.6264,35.3394,44.2505,-104.126
3365.299,0.4537,-0.6132,0.6313,36.0107,46.4478,-104.0649
3369.165,0.4505,-0.6125,0.6357,36.499,48.584,-104.0649
3373.12,0.4339,-0.6113,0.635,36.0107,50.5981,-103.6987
3378.444,0.4275,-0.6091,0.634,36.2549,52.1851,-103.3936
3381.431,0.4134,-0.6052,0.6325,36.1938,53.1006,-103.3325
3385.164,0.4022,-0.6022,0.6235,35.5225,54.2603,-103.0884
3389.093,0.3963,-0.5993,0.6152,35.7056,54.8706,-103.0884
3393.217,0.3904,-0.5964,0.6071,35.0342,55.1758,-102.9663
3397.164,0.3882,-0.5959,0.5966,34.3018,54.7485,-103.0273
3401.18,0.3912,-0.5998,0.5898,33.7524,54.1992,-103.4546
3405.179,0.3907,-0.6039,0.5864,33.4473,53.9551,-103.8208
3410.551,0.3897,-0.61,0.5825,33.2031,53.5278,-104.3701
3413.782,0.3904,-0.6142,0.5859,33.6914,52.9175,-105.1025
3418.836,0.3939,-0.6183,0.5937,34.1187,52.3071,-105.7129
3422.298,0.3836,-0.6266,0.6027,34.3628,51.2695,-106.1401
3425.203,0.3743,-0.6269,0.6108,35.0952,49.8047,-106.6895
3429.199,0.3638,-0.6262,0.6191,35.5835,48.645,-107.1777
3433.214,0.3502,-0.6247,0.6293,35.7666,46.7529,-107.605
3437.208,0.3387,-0.6186,0.6438,36.3159,44.5557,-108.0322
3443.951,0.3336,-0.6154,0.6574,36.3159,42.1753,-108.8867
3447.087,0.3323,-0.6139,0.6713,36.7432,39.6729,-109.8633
3450.075,0.3318,-0.6088,0.6816,36.3159,37.0483,-110.1074
3453.091,0.3375,-0.6037,0.6818,35.2783,34.668,-110.1074
3457.183,0.3475,-0.6008,0.685,34.729,32.7148,-110.5347
3461.083,0.358,-0.5951,0.6828,33.6304,31.8604,-110.7178
3465.223,0.3682,-0.5925,0.6782,32.959,31.1279,-110.5347
3469.163,0.3804,-0.5864,0.6726,31.4941,31.0669,-109.8022
3474.745,0.387,-0.5854,0.666,29.9072,31.6162,-108.8867
3477.97,0.3885,-0.5825,0.6594,29.0527,32.7148,-108.3374
3481.221,0.3936,-0.5834,0.6542,27.5269,33.6914,-107.8491
3485.04,0.3939,-0.5795,0.6489,25.9399,34.9731,-107.2388
3489.082,0.3946,-0.5734,0.6467,24.4141,36.6211,-106.5063
3493.11,0.3958,-0.5707,0.6462,24.0479,38.208,-105.5908
3497.154,0.4004,-0.5724,0.6523,22.0337,39.856,-104.6753
3500.978,0.4044,-0.5683,0.6557,21.4844,41.626,-103.8208
3506.872,0.4063,-0.5685,0.6669,21.1792,43.8232,-102.9663
3509.889,0.41,-0.5641,0.6745,20.3247,46.2646,-102.1729
3513.063,0.4163,-0.5649,0.6831,18.7988,49.0723,-101.0132
3517.143,0.4244,-0.5651,0.6918,17.5781,51.9409,-99.8535
3522.593,0.4312,-0.5663,0.7026,15.9912,54.5654,-98.877
3526.153,0.429,-0.568,0.7077,14.9536,56.8848,-97.8394
3529.145,0.4315,-0.5739,0.7099,14.8926,59.1431,-96.9849
3533.142,0.4207,-0.5785,0.7155,13.9771,60.9741,-96.3135
3537.136,0.4083,-0.58,0.7197,13.3667,62.1948,-95.52
3542.421,0.3921,-0.581,0.7285,12.146,62.5,-94.8486
3545.476,0.3677,-0.5768,0.7299,11.9019,61.7065,-94.6655
3549.102,0.3524,-0.57,0.7343,11.4746,60.0586,-94.8486
3552.976,0.3426,-0.5654,0.7365,10.7422,57.9224,-95.2759
3557.015,0.3384,-0.5624,0.738,9.8267,55.1147,-95.7031
3561.111,0.3348,-0.5585,0.7358,9.2773,52.063,-96.5576
3564.992,0.336,-0.5563,0.7377,8.8501,48.4619,-97.7173
3568.99,0.3431,-0.5563,0.7353,8.5449,44.4946,-98.7549
3573.988,0.3492,-0.551,0.7282,8.1787,40.7104,-99.3652
3577.051,0.3599,-0.5466,0.7167,7.5684,37.9639,-100.0366
3581.04,0.3724,-0.5434,0.7119,6.8359,35.3394,-100.4639
3585.033,0.3824,-0.5344,0.7102,5.8594,33.02,-100.647
3589.095,0.3951,-0.5322,0.7143,4.7607,31.189,-100.9521
3593.082,0.4061,-0.5309,0.7229,3.3569,30.7617,-101.1963
3596.917,0.4085,-0.528,0.7368,1.8311,30.7617,-101.1963
3600.956,0.4151,-0.5265,0.7509,0.061,31.6162,-100.647
3606.165,0.4153,-0.5317,0.7688,-1.8311,32.8369,-99.7925
3609.225,0.418,-0.5419,0.7827,-3.6621,34.668,-98.8159
3612.896,0.4185,-0.5451,0.8049,-5.9204,37.0483,-97.229
3617.032,0.4175,-0.5573,0.8208,-8.5449,39.917,-95.5811
3620.988,0.4161,-0.5644,0.8388,-10.6812,42.8467,-94.1162
3626.166,0.4083,-0.5702,0.8569,-11.6577,45.7153,-92.6514
3629.215,0.3995,-0.5754,0.871,-12.4512,48.2788,-91.3086
3632.989,0.3887,-0.5749,0.8864,-13.1226,50.7202,-90.21
3638.624,0.3785,-0.5663,0.8959,-13.4888,53.2837,-89.3555
3641.692,0.3668,-0.5536,0.9023,-13.6108,54.8706,-88.3789
3644.862,0.3516,-0.538,0.9008,-13.7329,56.5186,-87.2803
3648.938,0.3467,-0.5222,0.9006,-13.855,56.8237,-86.5479
3652.922,0.3448,-0.506,0.8945,-13.9771,56.8848,-85.6934
3656.898,0.3411,-0.4997,0.8916,-13.3667,56.2744,-85.022
3660.928,0.3311,-0.4899,0.884,-13.2446,54.9316,-84.4727
3665.021,0.3204,-0.4814,0.8698,-12.146,53.5278,-83.6792
3670.749,0.3138,-0.4775,0.8554,-11.2305,52.063,-83.1909
3673.952,0.306,-0.4684,0.8464,-10.1929,50.354,-83.0688
3677.003,0.3062,-0.4675,0.8332,-9.2163,48.9502,-83.1909
3681.013,0.3072,-0.4599,0.8161,-8.1787,46.7529,-83.252
3684.876,0.3047,-0.4621,0.8044,-6.6528,44.2505,-83.374
3688.898,0.3067,-0.4616,0.7946,-5.7373,41.8091,-83.0688
3692.956,0.3111,-0.4616,0.7873,-4.1504,39.4287,-83.0688
3696.909,0.316,-0.4604,0.7871,-2.5024,37.1094,-82.7637
3702.451,0.3184,-0.4601,0.7893,-1.0986,35.1562,-82.3975
3705.522,0.3213,-0.4577,0.7949,0.6104,33.5693,-81.8481
3708.883,0.327,-0.4579,0.8056,1.4648,31.7993,-81.1157
3712.854,0.3311,-0.4594,0.8181,2.5635,30.3345,-80.4443
3716.892,0.3382,-0.4645,0.8317,3.479,29.541,-79.5288
3720.962,0.3438,-0.465,0.8393,3.9673,28.8086,-78.4302
3725.974,0.347,-0.4701,0.8417,5.0049,28.4424,-77.1484
3729.528,0.3543,-0.4728,0.8439,5.249,28.5645,-75.6226
3734.505,0.3538,-0.4767,0.8417,5.9814,28.0762,-74.1577
3737.555,0.3533,-0.4767,0.8425,6.4697,28.1372,-72.5708
3740.842,0.356,-0.4758,0.8427,7.7515,27.9541,-71.0449
3744.837,0.3519,-0.4753,0.8415,8.1787,27.5879,-69.519
3748.918,0.3526,-0.4743,0.8425,9.0942,27.2217,-68.1152
3752.933,0.3492,-0.4677,0.841,9.7656,26.3672,-66.7114
3756.956,0.3482,-0.464,0.8378,10.6812,24.9634,-65.1855
3760.909,0.3484,-0.4543,0.8332,11.2915,23.1934,-63.9648
3766.138,0.3465,-0.4528,0.8249,11.3525,21.6675,-62.8052
3768.852,0.3499,-0.4438,0.8161,11.4136,19.8975,-61.7676
3772.94,0.348,-0.4426,0.8051,11.2305,18.5547,-60.6079
3776.909,0.3543,-0.4372,0.7915,11.6577,17.9443,-59.5093
3780.847,0.3602,-0.4391,0.7788,11.8408,17.7002,-58.2886
3784.811,0.3719,-0.4345,0.7714,12.5122,18.3105,-57.251
3788.791,0.3765,-0.4326,0.7631,12.6953,18.7988,-56.0913
3792.818,0.3768,-0.4296,0.7509,13.3667,18.9819,-55.4199
3796.767,0.3655,-0.4304,0.7438,13.6108,19.104,-54.6875
3801.756,0.3563,-0.4277,0.7375,13.7329,18.6157,-54.1992
3804.921,0.3426,-0.4255,0.7373,14.5264,17.395,-54.0771
3808.86,0.3294,-0.4247,0.7387,15.0757,15.625,-54.2603
3812.851,0.3243,-0.4264,0.7448,15.8081,12.9395,-54.7485
3816.887,0.325,-0.423,0.7534,16.3574,9.7656,-55.542
3820.899,0.3345,-0.4282,0.7631,15.9302,6.4087,-56.3354
3824.798,0.3436,-0.4355,0.7678,15.8081,2.7466,-57.0679
3830.098,0.3607,-0.4382,0.7739,15.7471,-0.061,-57.4341
3835.185,0.3765,-0.4426,0.7751,15.4419,-2.7466,-57.5562
3838.128,0.3907,-0.4494,0.7775,15.2588,-4.5776,-57.373
3841.179,0.4002,-0.4509,0.7797,14.8315,-5.4321,-56.9458
3844.715,0.4083,-0.4528,0.7771,14.6484,-5.9204,-56.6406
3848.683,0.4141,-0.4577,0.7724,13.9771,-6.0425,-55.9692
3852.883,0.4202,-0.4555,0.7697,13.855,-5.249,-55.2979
3856.802,0.4158,-0.4579,0.7692,13.6719,-4.2725,-54.4434
3860.686,0.4053,-0.4548,0.7707,13.7939,-3.2349,-53.4058
3866.168,0.4007,-0.4516,0.7761,12.8174,-1.6479,-52.6123
3868.87,0.4012,-0.4479,0.778,12.5732,0.3662,-51.8799
3872.777,0.4041,-0.4479,0.7819,11.5967,1.9531,-50.9033
3876.855,0.4014,-0.4484,0.7802,10.6812,3.3569,-49.9878
3880.704,0.408,-0.4548,0.7768,9.8877,4.5166,-49.0723
3884.738,0.4039,-0.4609,0.7702,8.728,5.9204,-48.2178
3888.761,0.3936,-0.4614,0.7631,7.019,6.7749,-47.6685
3892.684,0.3746,-0.4687,0.7534,6.4697,7.3853,-47.4243
3896.786,0.3538,-0.4706,0.7446,6.4087,7.2632,-47.3633
3901.667,0.3316,-0.4731,0.7377,6.1646,7.019,-47.4854
3904.697,0.316,-0.4741,0.7358,6.8359,6.1646,-47.7905
3908.686,0.3077,-0.4748,0.7353,7.2021,4.3335,-48.2788
3912.814,0.3072,-0.4738,0.7404,7.3853,1.9531,-48.8892
3916.796,0.3099,-0.475,0.7485,6.897,-0.3052,-49.5605
3920.815,0.3111,-0.4743,0.7619,7.6904,-2.1362,-50.1099
3924.632,0.3116,-0.4799,0.7668,6.958,-3.3569,-50.1709
3928.728,0.3177,-0.4885,0.7792,7.3853,-4.0894,-49.8657
3934.947,0.3235,-0.4938,0.7912,8.1787,-4.2725,-49.1943
3937.998,0.3348,-0.4931,0.8022,8.1177,-4.2114,-48.7061
3940.888,0.3394,-0.4968,0.8127,9.3384,-4.4556,-48.7061
3944.671,0.3397,-0.499,0.8212,9.7046,-4.4556,-48.645
3948.612,0.3272,-0.5014,0.8261,10.437,-4.2725,-48.0957
3952.619,0.3267,-0.5002,0.8278,11.1694,-4.4556,-46.9971
3956.781,0.3226,-0.498,0.8288,11.4746,-4.6997,-45.6543
3960.763,0.3162,-0.4958,0.8325,13.0615,-4.6997,-44.3115
3964.685,0.3231,-0.4929,0.8347,13.7939,-4.6997,-43.396
3968.614,0.3187,-0.4902,0.8391,14.8926,-4.5776,-42.8467
3972.696,0.3228,-0.4836,0.851,15.4419,-4.0894,-42.2363
3976.585,0.317,-0.4814,0.8559,15.564,-4.3335,-41.687
3980.749,0.3123,-0.4804,0.8581,16.0522,-4.7607,-41.2598
3984.686,0.2994,-0.4826,0.8579,15.9912,-4.9438,-40.7715
3988.622,0.284,-0.4865,0.8544,15.7471,-5.4321,-40.1001
3992.659,0.2718,-0.4875,0.8513,16.3574,-6.1646,-39.6118
3996.594,0.2593,-0.4975,0.8537,16.7236,-7.5684,-39.3677
4001.494,0.2535,-0.5031,0.8566,17.8833,-8.667,-39.0625
4004.734,0.2523,-0.5043,0.852,18.1885,-10.2539,-38.5742
4008.729,0.2476,-0.5053,0.852,18.1274,-11.8408,-38.208
4012.547,0.2532,-0.5119,0.8491,18.7988,-13.6108,-37.7197
4016.683,0.2532,-0.5148,0.8483,19.4702,-15.4419,-37.5977
4020.545,0.2518,-0.52,0.8479,20.1416,-17.395,-37.4756
4024.682,0.2508,-0.5192,0.852,20.9961,-19.5312,-37.4756
4028.602,0.2525,-0.5207,0.8498,21.5454,-21.3623,-37.4146
4035.968,0.2603,-0.5246,0.8479,21.7896,-23.4375,-37.0483
4039.023,0.2671,-0.5229,0.8444,22.583,-24.353,-36.5601
4042.082,0.2798,-0.5256,0.8427,22.8882,-24.4751,-35.8887
4045.123,0.2813,-0.5236,0.8396,23.3765,-24.4141,-35.3394
4048.535,0.2769,-0.5246,0.8374,23.5596,-23.9258,-34.6069
4052.612,0.2652,-0.5236,0.8303,23.5596,-23.0713,-33.8135
4056.682,0.254,-0.5224,0.831,24.292,-22.3999,-32.7759
4060.52,0.2405,-0.5153,0.8266,24.1699,-21.9727,-31.7993
4064.498,0.2317,-0.5087,0.8251,24.8413,-21.6675,-31.0669
4068.876,0.2239,-0.5082,0.8264,24.231,-22.0337,-30.3345
4072.61,0.2222,-0.5102,0.8259,23.7427,-22.8882,-29.48
4076.501,0.2244,-0.5102,0.8251,22.7051,-23.9868,-28.7476
4080.547,0.2288,-0.5175,0.8225,21.6675,-24.7192,-28.0151
4084.667,0.2332,-0.5204,0.812,20.874,-25.6958,-27.3438
4088.609,0.2447,-0.5234,0.8051,19.6533,-26.1841,-26.6113
4092.66,0.2493,-0.5309,0.7971,18.9819,-25.8789,-25.6958
4096.497,0.2552,-0.537,0.8007,18.7988,-25.3296,-25.0244
4101.517,0.2557,-0.5356,0.8063,18.9209,-25.5127,-24.9634
4104.586,0.2564,-0.5407,0.8156,17.9443,-25.8789,-25.0854
4108.621,0.2518,-0.5427,0.8144,17.7002,-26.4282,-25.2075
4112.466,0.2513,-0.5463,0.8132,16.8457,-27.2217,-25.2075
4116.486,0.2505,-0.5493,0.8093,15.8081,-27.9541,-25.2686
4120.464,0.2498,-0.5517,0.8073,15.625,-28.6255,-25.2686
4124.469,0.2447,-0.5571,0.7995,14.8926,-29.2969,-25.6348
4128.532,0.2444,-0.5576,0.7941,14.7095,-29.48,-26.5503
4135.384,0.2454,-0.568,0.8037,15.3198,-29.2358,-27.8931
4139.358,0.2603,-0.5788,0.8281,15.8691,-28.5034,-28.9307
4142.207,0.2698,-0.5947,0.8547,17.2119,-27.771,-29.7241
4144.815,0.2803,-0.611,0.8613,17.6392,-26.4893,-30.3345
4148.511,0.2879,-0.6179,0.8691,18.3105,-24.6582,-30.9448
4152.472,0.2816,-0.6159,0.8828,19.7144,-22.2778,-31.5552
4156.549,0.2733,-0.6144,0.8881,21.2402,-20.2026,-32.1655
4160.527,0.2671,-0.6144,0.8957,22.0337,-19.165,-33.1421
4165.399,0.2662,-0.6203,0.903,22.8882,-19.165,-34.4238
4168.513,0.2613,-0.6205,0.9128,23.9868,-19.165,-35.5225
4172.587,0.2596,-0.6264,0.9167,24.7803,-19.2871,-36.0107
4176.484,0.2571,-0.6215,0.9128,24.6582,-19.043,-35.9497
4180.581,0.2613,-0.6252,0.9152,24.7803,-18.7378,-35.7056
4184.566,0.253,-0.6345,0.9245,25.2075,-18.0664,-35.5225
4188.567,0.241,-0.6464,0.9306,25.1465,-17.8833,-35.4004
4192.587,0.2349,-0.6557,0.9292,25.4517,-18.0664,-34.79
4199.155,0.2278,-0.6601,0.9184,26.3062,-18.1885,-33.9966
4202.669,0.2215,-0.663,0.9028,27.1606,-17.5781,-32.959
4205.879,0.2132,-0.6559,0.8879,28.3813,-16.9678,-32.0435
4209.092,0.2073,-0.644,0.8737,29.8462,-16.4185,-31.311
4212.499,0.2,-0.6389,0.864,30.8228,-16.1133,-30.6396
4216.441,0.1841,-0.6276,0.8569,31.7993,-16.2354,-30.1514
4220.562,0.1734,-0.6076,0.8513,32.1655,-17.2729,-29.7241
4224.534,0.1585,-0.6005,0.8422,31.7993,-18.9819,-29.541
4228.468,0.1509,-0.5981,0.8405,31.25,-21.7285,-29.48
4233.671,0.149,-0.5981,0.8332,30.4565,-24.8413,-29.9683
4238.564,0.1522,-0.6,0.8322,29.48,-27.8931,-30.3345
4241.784,0.1531,-0.602,0.833,29.2969,-31.1279,-30.5176
4245.029,0.1546,-0.6091,0.8315,28.4424,-33.6914,-30.3955
4248.556,0.1526,-0.6135,0.8266,28.5034,-36.2549,-30.0903
4252.36,0.1492,-0.6093,0.8261,28.3203,-38.4521,-29.3579
4256.509,0.1519,-0.6071,0.8244,28.2593,-40.0391,-28.6865
4260.381,0.1461,-0.6005,0.8303,28.0151,-41.748,-28.1372
4265.785,0.1397,-0.592,0.8322,27.4658,-42.9077,-27.5879
4269.058,0.1326,-0.5932,0.8322,27.5269,-44.1895,-27.2827
4272.351,0.1255,-0.5788,0.8325,27.0996,-45.4102,-26.3672
4276.437,0.1263,-0.5773,0.8264,26.3062,-46.3867,-25.1465
4280.319,0.1316,-0.5749,0.8203,25.6348,-46.4478,-23.7427
4284.46,0.1439,-0.5683,0.8173,24.6582,-45.3491,-22.4609
4288.46,0.1534,-0.5678,0.8127,23.1934,-43.8232,-21.3623
4292.473,0.1646,-0.5717,0.8093,22.0337,-42.1143,-20.5688
4297.661,0.1641,-0.5773,0.8081,21.4233,-39.978,-19.7754
4300.667,0.1624,-0.5742,0.8149,21.4844,-38.0249,-18.6157
4304.492,0.1575,-0.5737,0.8171,21.1182,-36.2549,-17.2729
4308.308,0.1595,-0.57,0.8178,20.5078,-35.0952,-16.2354
4312.303,0.1629,-0.5693,0.8232,20.2637,-34.1797,-15.7471
4316.437,0.1712,-0.5678,0.8261,19.5312,-33.2642,-15.3198
4320.395,0.1756,-0.5685,0.8298,19.3481,-32.7759,-15.1978
4324.365,0.1766,-0.5646,0.8339,18.4326,-32.4707,-15.0757
4329.701,0.1732,-0.5632,0.833,17.8833,-32.0435,-15.0757
4333.824,0.1768,-0.5585,0.8354,18.0054,-31.4941,-15.0757
4336.922,0.1802,-0.5605,0.8393,17.5171,-31.311,-15.3809
4342.301,0.1854,-0.5563,0.8369,17.5171,-30.2734,-15.4419
4345.474,0.1876,-0.5549,0.8381,17.9443,-29.1138,-15.625
4348.579,0.19,-0.5534,0.8439,17.7612,-27.71,-15.686
4352.422,0.1924,-0.5539,0.8474,17.8223,-26.123,-15.8081
4356.358,0.1878,-0.5534,0.8544,18.4937,-23.9868,-15.625
4361.904,0.1771,-0.5522,0.8547,19.3481,-22.0337,-15.4419
4364.811,0.1692,-0.5519,0.8562,19.9585,-20.5078,-15.3198
4368.313,0.1629,-0.5458,0.8584,20.9351,-19.104,-15.4419
4372.323,0.1478,-0.5417,0.8632,21.4844,-18.4937,-15.5029
4376.357,0.1375,-0.5424,0.8654,22.1558,-18.2495,-15.625
4380.241,0.1316,-0.5444,0.8662,22.644,-18.6768,-15.8691
4384.352,0.1246,-0.5405,0.8615,23.1934,-19.043,-15.8081
4388.353,0.1194,-0.54,0.8554,23.9868,-19.8975,-15.5029
4393.839,0.1155,-0.5363,0.8584,25.2075,-20.813,-15.2588
4396.706,0.1131,-0.5312,0.8544,25.3906,-22.3999,-14.8926
4400.361,0.1129,-0.5307,0.8503,25.8179,-23.9258,-15.1367
4404.305,0.1055,-0.5256,0.8454,26.3672,-25.5737,-15.0146
4408.231,0.1085,-0.5265,0.8378,27.2827,-27.0996,-14.5264
4412.395,0.1116,-0.5241,0.8286,27.71,-28.3203,-13.6719
4416.351,0.1158,-0.5209,0.8217,28.5034,-30.0293,-13.0005
4420.352,0.1216,-0.5158,0.8251,29.0527,-31.4331,-12.146
4426.101,0.129,-0.5185,0.8339,29.48,-32.8979,-11.5356
4429.252,0.1285,-0.5187,0.8374,29.2358,-34.729,-10.9863
4432.379,0.1292,-0.5285,0.841,29.2969,-36.6821,-10.498
4436.206,0.1297,-0.5295,0.8439,29.1138,-38.8794,-9.7656
4440.298,0.1407,-0.5385,0.8405,29.8462,-40.5884,-9.3384
4444.483,0.1429,-0.5449,0.8396,29.2969,-41.748,-8.606
4448.215,0.1529,-0.5539,0.8364,29.541,-43.2129,-8.3008
4452.36,0.1529,-0.5622,0.8427,29.9072,-44.1895,-7.9956
4456.283,0.1507,-0.569,0.8452,30.2124,-44.4946,-7.4463
4461.164,0.1534,-0.5781,0.8444,30.6396,-44.9829,-6.7139
4464.385,0.16,-0.5825,0.8349,30.7617,-45.9595,-6.4087
4468.206,0.1807,-0.5905,0.8315,30.8838,-46.5088,-5.9814
4472.181,0.1924,-0.5961,0.8271,31.1279,-46.2646,-5.249
4476.295,0.2098,-0.6022,0.8217,31.4331,-45.5322,-5.0659
4480.282,0.2298,-0.6044,0.8161,31.5552,-43.9453,-4.7607
4484.181,0.2315,-0.6098,0.8088,31.8604,-41.9922,-4.1504
4488.277,0.2259,-0.612,0.7961,31.8604,-40.3442,-3.8452
4492.863,0.2239,-0.6086,0.7907,31.7993,-39.1235,-4.0283
4496.167,0.2173,-0.6125,0.7932,32.5928,-38.3301,-4.2114
4500.122,0.2188,-0.6069,0.8017,33.0811,-37.6587,-4.4556
4504.184,0.2054,-0.6042,0.8071,32.2876,-37.5366,-3.9062
4508.129,0.1993,-0.6098,0.8105,31.9214,-37.7197,-3.9673
4512.135,0.192,-0.6015,0.8107,31.3721,-38.0859,-3.9062
4516.237,0.1873,-0.5949,0.8129,31.7383,-38.6963,-4.2114
4520.255,0.179,-0.5939,0.8095,31.1279,-39.1235,-4.2725
4525.189,0.1749,-0.5969,0.8137,30.5176,-39.7949,-4.4556
4528.234,0.1668,-0.5944,0.8085,29.541,-39.917,-4.2725
4532.209,0.1724,-0.602,0.8098,29.0527,-39.978,-4.4556
4536.209,0.1639,-0.6047,0.8125,29.1748,-39.7339,-4.4556
4540.136,0.1602,-0.6071,0.8186,28.5034,-39.5508,-4.5166
4545.06,0.1553,-0.6093,0.811,28.5034,-39.2456,-4.5166
4548.71,0.1502,-0.6056,0.8112,28.8086,-38.9404,-4.5166
4552.163,0.1473,-0.6034,0.8117,29.0527,-38.8794,-4.6387
4557.224,0.1487,-0.5949,0.8051,28.8086,-38.3911,-4.6387
4560.297,0.158,-0.592,0.8027,28.6865,-38.5132,-4.8218
4564.136,0.1634,-0.5917,0.8107,29.1748,-37.9639,-5.3711
4568.232,0.171,-0.593,0.8012,29.1748,-36.6821,-5.4321
4572.096,0.171,-0.5944,0.8007,28.7476,-36.0718,-5.8594
4576.168,0.1768,-0.6044,0.801,28.3203,-34.9121,-6.5308
4580.083,0.1761,-0.6096,0.7905,28.1982,-33.5693,-6.7749
4584.084,0.1639,-0.6159,0.7639,27.5269,-32.6538,-7.019
4588.926,0.1487,-0.6171,0.7099,27.5269,-32.7759,-7.0801
4592.399,0.1307,-0.6154,0.6923,27.3438,-31.9824,-6.1035
4596.128,0.1285,-0.613,0.695,26.9165,-31.7383,-5.9814
4600.165,0.1368,-0.6118,0.6914,26.062,-32.6538,-7.2632
4604.094,0.1653,-0.6179,0.6992,25.7568,-33.4473,-8.5449
4608.147,0.189,-0.6069,0.7121,25.3296,-33.5693,-9.5215
4612.12,0.211,-0.5991,0.7268,24.292,-33.0811,-10.1318
4616.183,0.2222,-0.5942,0.7429,23.4985,-32.1045,-10.9253
4621.53,0.2232,-0.5866,0.7636,23.0103,-30.7007,-11.7798
4624.566,0.2205,-0.5851,0.7968,22.4609,-28.6865,-12.5732
4628.204,0.2029,-0.5881,0.8256,21.9727,-26.9775,-13.2446
4632.032,0.1815,-0.5937,0.8535,21.3623,-24.7803,-13.6719
4636.181,0.1575,-0.5964,0.8732,20.9351,-22.8271,-14.0991
4640.049,0.1387,-0.5988,0.8903,20.6909,-20.813,-14.4043
4644.173,0.1226,-0.5915,0.9018,20.9351,-19.2871,-14.4043
4649.369,0.1129,-0.6,0.9038,20.6299,-18.5547,-14.2822
4654.072,0.1089,-0.602,0.8964,20.5688,-18.0054,-14.0381
4657.12,0.1107,-0.6037,0.8896,20.6909,-18.2495,-13.7939
4660.036,0.1177,-0.5971,0.8818,21.2402,-18.9819,-13.6719
4664.082,0.117,-0.5939,0.8708,21.4233,-20.2637,-13.4277
4668.05,0.1185,-0.5898,0.861,21.1792,-22.0337,-13.1226
4671.996,0.1263,-0.5866,0.8571,21.7285,-23.8037,-12.8784
4676.014,0.1299,-0.5934,0.8554,21.7285,-25.8789,-12.4512
4680.115,0.1329,-0.6005,0.8559,21.5454,-28.0151,-12.2681
4684.06,0.1319,-0.613,0.8552,21.7896,-30.3345,-12.4512
4688.707,0.1302,-0.6249,0.8503,21.6675,-32.1655,-12.5122
4692.087,0.1273,-0.6371,0.842,21.7285,-33.9355,-12.3901
4695.997,0.1253,-0.6472,0.831,22.7661,-35.1562,-12.3291
4700.031,0.1204,-0.652,0.8161,23.1323,-36.0107,-12.146
4704.082,0.1136,-0.653,0.8029,24.292,-36.3159,-11.9019
4708.072,0.1094,-0.6552,0.7983,25.0244,-36.0718,-11.8408
4712.01,0.1092,-0.6613,0.7919,25.9399,-35.6445,-12.0239
4716.132,0.1036,-0.6598,0.7819,26.7334,-34.8511,-12.3291
4721.098,0.0943,-0.6655,0.7705,27.5269,-34.0576,-12.5732
4724.036,0.0845,-0.6647,0.7675,27.832,-33.3252,-12.6953
4728.093,0.066,-0.6633,0.7666,28.3813,-32.7148,-12.6953
4732.037,0.0552,-0.6608,0.7719,29.1748,-32.2876,-12.8174
4736.056,0.0484,-0.6623,0.7758,29.7852,-31.9824,-13.0615
4740.017,0.0403,-0.6594,0.7836,29.7852,-31.9824,-13.1226
4743.942,0.0369,-0.6608,0.7976,30.7007,-32.0435,-13.4277
4748.11,0.0367,-0.6506,0.8073,31.0059,-32.0435,-13.916
4754.419,0.0399,-0.6425,0.8249,31.4941,-32.2266,-14.5264
4757.657,0.0423,-0.6418,0.8417,31.0059,-32.959,-15.3809
4760.558,0.0538,-0.6379,0.8513,31.5552,-32.7759,-15.8691
4764.086,0.0618,-0.633,0.8554,31.7383,-32.8369,-16.3574
4767.975,0.0679,-0.6327,0.8522,31.4941,-32.2876,-16.7236
4771.908,0.0687,-0.6298,0.8391,31.6772,-32.1655,-16.9678
4775.935,0.0713,-0.6237,0.8313,31.6162,-31.7383,-17.395
4779.945,0.0699,-0.6179,0.8237,32.1655,-31.9824,-18.1274
4783.896,0.0706,-0.6088,0.8112,32.2266,-32.1655,-18.9209
4788.042,0.0731,-0.6052,0.7983,31.9824,-31.9214,-19.5312
4792.047,0.0779,-0.6017,0.7929,32.1045,-31.311,-20.2637
4795.881,0.084,-0.5991,0.7915,32.2266,-30.4565,-20.6299
4800.003,0.0845,-0.5998,0.7946,32.1655,-29.4189,-20.9961
4803.95,0.0853,-0.5976,0.802,31.6162,-28.1982,-21.5454
4807.98,0.0826,-0.5978,0.8073,31.7383,-27.0996,-22.0947
4812.024,0.0765,-0.5971,0.8088,31.189,-26.123,-22.644
4815.872,0.075,-0.5954,0.812,31.311,-25.2686,-23.0103
4820.589,0.074,-0.5988,0.8085,31.1279,-25.4517,-23.5596
4823.877,0.0767,-0.6013,0.8117,31.1279,-25.5737,-24.1699
4828.029,0.095,-0.6027,0.8085,30.9448,-25.6958,-24.9023
4832.008,0.1265,-0.6091,0.7651,30.2124,-25.9399,-25.7568
4835.832,0.1412,-0.6139,0.7331,30.0293,-26.6724,-26.4893
4839.994,0.1441,-0.6293,0.7304,29.8462,-26.3062,-26.9165
4843.847,0.1309,-0.6432,0.7341,30.7007,-25.6958,-26.4282
4847.977,0.1075,-0.6452,0.7236,31.0059,-24.1699,-25.7568
4855.084,0.0782,-0.6301,0.7287,31.7383,-23.3154,-25.5737
4858.432,0.0599,-0.6157,0.7448,32.4707,-22.8882,-25.4517
4861.6,0.0511,-0.6064,0.7478,33.2642,-23.3154,-25.5127
4864.577,0.0484,-0.5925,0.7487,33.5083,-23.3154,-25.5127
4867.821,0.0545,-0.5807,0.7543,33.2031,-23.1934,-25.2686
4871.854,0.0557,-0.5727,0.7592,33.6304,-22.9492,-24.8413
4875.909,0.0591,-0.57,0.7709,33.0811,-23.1323,-24.4751
4879.978,0.0672,-0.5673,0.7851,32.7759,-23.0713,-24.5972
4883.796,0.0723,-0.5739,0.7968,32.2266,-23.7427,-24.7192
4888.015,0.0762,-0.5788,0.802,31.7993,-24.353,-24.4751
4891.97,0.084,-0.5834,0.8103,31.189,-25.0854,-24.1699
4895.916,0.0858,-0.5951,0.8103,31.311,-26.062,-23.8647
4899.781,0.086,-0.6049,0.8078,31.0669,-27.0386,-23.4375
4903.947,0.0845,-0.6093,0.8039,31.4331,-28.5034,-23.0713
4907.869,0.0901,-0.6161,0.8044,31.7993,-29.6631,-22.583
4911.837,0.0962,-0.6215,0.8081,31.9214,-30.4565,-22.3999
4915.851,0.0948,-0.6247,0.8144,32.2266,-30.8228,-22.2168
4920.839,0.096,-0.6281,0.8195,32.1045,-30.8838,-21.8506
4923.935,0.0911,-0.631,0.8322,32.7759,-31.189,-21.4844
4927.812,0.084,-0.6345,0.8381,32.7148,-31.4331,-21.2402
4931.876,0.075,-0.6406,0.8378,32.4097,-31.8604,-20.9351
4935.761,0.0757,-0.6459,0.831,32.959,-31.8604,-20.752
4939.84,0.0767,-0.6511,0.8264,32.7759,-31.6772,-20.3857
4943.925,0.0743,-0.6523,0.8247,32.959,-31.311,-20.2026
4947.816,0.065,-0.6484,0.8208,33.6914,-31.1279,-19.9585
4954.239,0.0523,-0.6467,0.8156,33.8745,-31.5552,-19.4702
4959.037,0.0411,-0.6384,0.8056,34.3628,-32.1045,-19.043
4962.798,0.0333,-0.632,0.7985,34.668,-33.1421,-18.7988
4966.298,0.0301,-0.6244,0.7893,34.4238,-34.4238,-18.6157
4969.197,0.0311,-0.6218,0.7834,35.3394,-36.0718,-18.4937
4972.236,0.034,-0.6147,0.7749,34.3628,-37.2314,-18.2495
4975.83,0.0401,-0.6034,0.7736,35.4004,-38.3911,-18.3716
4979.805,0.0433,-0.5988,0.7751,34.9121,-38.9404,-18.4937
4984.79,0.0528,-0.5951,0.79,34.9121,-39.4897,-18.7378
4987.771,0.0621,-0.5939,0.8068,34.4849,-40.0391,-18.9819
4991.855,0.0718,-0.5983,0.82,33.5693,-40.2832,-19.165
4995.72,0.0772,-0.6059,0.8352,33.0811,-40.6494,-19.2871
4999.797,0.0836,-0.6159,0.8452,32.2876,-40.9546,-19.2871
5003.863,0.084,-0.6264,0.8493,31.9214,-40.7715,-19.4092
5007.786,0.0877,-0.6284,0.8457,31.4941,-40.6494,-19.5312
5011.857,0.0794,-0.6281,0.8439,31.189,-40.3442,-19.8364
5016.863,0.0731,-0.6254,0.8386,30.8228,-39.856,-20.1416
5019.817,0.0608,-0.6323,0.8266,30.9448,-39.856,-20.5078
5023.818,0.0545,-0.6308,0.8127,30.4565,-39.7949,-20.813
5027.834,0.0494,-0.6347,0.7998,30.2124,-39.7949,-21.3013
5031.68,0.0482,-0.632,0.7932,30.3345,-39.856,-21.7285
5035.687,0.0447,-0.6315,0.791,30.7007,-39.6118,-22.1558
5039.741,0.0447,-0.6325,0.7929,30.7007,-39.3677,-22.7051
5043.742,0.0447,-0.6315,0.8002,31.0059,-39.1846,-23.2544
5048.907,0.0484,-0.633,0.8066,30.8228,-39.0625,-23.8647
5052.109,0.0535,-0.6357,0.8117,31.0059,-38.8794,-24.5361
5057.307,0.0555,-0.6413,0.8105,31.311,-38.6353,-25.0854
5061.144,0.0552,-0.6454,0.8127,31.9214,-38.208,-25.5737
5064.177,0.0535,-0.6454,0.8068,32.2266,-37.8418,-25.8179
5067.75,0.053,-0.642,0.7973,32.8369,-37.6587,-26.1841
5071.81,0.055,-0.6376,0.791,33.2642,-37.1704,-26.6724
5075.805,0.0616,-0.6308,0.7912,33.5693,-36.6211,-26.9775
5080.927,0.0616,-0.622,0.7932,34.0576,-36.0718,-27.4048
5083.798,0.0648,-0.6201,0.7902,33.8135,-35.7666,-27.6489
5087.745,0.0696,-0.6203,0.7814,34.1187,-35.4004,-27.8931
5091.697,0.0701,-0.6122,0.7746,33.8135,-34.9731,-27.771
5095.713,0.0684,-0.6071,0.7771,33.9966,-34.668,-27.6489
5099.603,0.0682,-0.601,0.7822,33.9966,-34.0576,-27.5879
5103.617,0.0723,-0.6013,0.7929,34.3628,-33.5083,-27.771
5107.768,0.0777,-0.5995,0.8032,33.6914,-33.1421,-27.832
5113.102,0.0828,-0.6025,0.8103,33.5693,-33.1421,-27.9541
5116.354,0.0772,-0.6096,0.8063,33.3862,-33.2642,-27.9541
5119.692,0.0809,-0.6108,0.7985,32.6538,-33.8135,-27.71
5123.749,0.0735,-0.6069,0.7959,32.959,-33.9966,-27.2827
5127.583,0.0713,-0.6096,0.7963,32.8979,-34.1797,-26.9775
5131.767,0.0704,-0.6154,0.8007,32.8369,-34.729,-26.9165
5135.761,0.0677,-0.6147,0.8027,32.7759,-35.2783,-27.1606
5139.759,0.0645,-0.6154,0.8095,32.4097,-35.6445,-27.4048
5145.258,0.0628,-0.6179,0.8146,32.2876,-35.7666,-27.5879
5148.272,0.0628,-0.6213,0.8181,32.3486,-36.1328,-27.5269
5151.657,0.0611,-0.6254,0.8242,31.7383,-36.377,-27.3438
5155.696,0.0574,-0.631,0.8283,32.2876,-36.6821,-27.4658
5161.528,0.0604,-0.6371,0.8286,31.6772,-37.4146,-27.5879
5164.668,0.0611,-0.6398,0.8227,31.4331,-37.7197,-27.5879
5167.723,0.0601,-0.6452,0.8144,31.1279,-37.9028,-27.71
5171.708,0.0613,-0.6357,0.8061,30.9448,-37.9028,-27.832
5177.499,0.0611,-0.6325,0.7961,31.7383,-37.7808,-27.5879
5180.458,0.0613,-0.6284,0.7885,31.7383,-37.2314,-27.4658
5183.619,0.0574,-0.6227,0.7929,31.4331,-36.6211,-27.4658
5187.691,0.0574,-0.6201,0.8012,31.1279,-36.1328,-27.771
5191.632,0.0579,-0.6188,0.812,30.5176,-35.6445,-28.1372
5195.655,0.0582,-0.621,0.8166,30.1514,-35.4614,-28.1982
5199.566,0.0594,-0.6262,0.8208,30.2124,-35.5225,-28.3203
5203.69,0.0611,-0.6276,0.8159,30.1514,-35.6445,-28.3813
5209.014,0.0591,-0.6298,0.8081,29.7241,-35.7666,-28.3203
5211.804,0.0613,-0.6337,0.8103,29.7852,-36.3159,-28.3813
5215.566,0.0611,-0.6276,0.8085,29.7241,-36.6211,-28.4424
5219.576,0.064,-0.6215,0.8115,30.0293,-36.499,-28.6865
5223.659,0.0665,-0.6266,0.8142,29.9072,-36.499,-28.8696
5227.632,0.0638,-0.6279,0.8149,29.6021,-36.6211,-29.1748
5231.687,0.0662,-0.631,0.8032,29.2969,-36.5601,-29.3579
5235.608,0.0608,-0.6286,0.7973,28.9917,-36.5601,-29.2969
5239.62,0.0643,-0.6254,0.7973,29.2969,-36.377,-29.0527
5244.298,0.0677,-0.6222,0.7963,29.3579,-36.1938,-29.1138
5247.605,0.0689,-0.623,0.7976,28.8696,-35.9497,-29.1748
5251.654,0.0718,-0.6254,0.8002,28.8696,-35.5225,-29.2969
5255.544,0.0743,-0.6232,0.801,28.7476,-35.5225,-29.4189
5259.671,0.0755,-0.6296,0.798,28.9307,-35.2173,-29.4189
5264.071,0.0696,-0.6266,0.7941,28.6255,-35.0952,-29.3579
5267.544,0.0689,-0.6301,0.7849,29.0527,-35.0952,-29.1138
5271.503,0.0679,-0.6271,0.7814,28.9307,-35.1562,-29.0527
5276.564,0.0626,-0.6327,0.7829,29.3579,-35.0952,-28.9307
5279.583,0.0587,-0.6235,0.7888,29.6021,-35.1562,-29.1138
5283.51,0.0516,-0.6257,0.7983,29.7241,-35.3394,-29.1748
5287.477,0.056,-0.6227,0.7995,29.6631,-35.7666,-29.0527
5291.501,0.0562,-0.6247,0.8,29.6631,-36.1938,-28.8086
5295.458,0.065,-0.6279,0.8015,29.6021,-36.5601,-28.5645
5299.487,0.0726,-0.6281,0.7993,29.8462,-36.8652,-28.1372
5303.583,0.0782,-0.6305,0.7959,29.7852,-37.2314,-27.771
5308.755,0.0828,-0.6281,0.7932,29.8462,-37.5977,-27.3438
5311.991,0.086,-0.6298,0.7907,30.3955,-37.9028,-26.9775
5315.532,0.0862,-0.6271,0.7871,30.5786,-37.9028,-26.4893
5319.489,0.0875,-0.6269,0.7839,30.3955,-38.0859,-26.062
5323.474,0.0801,-0.6213,0.7802,30.9448,-38.269,-25.6958
5327.437,0.0828,-0.6201,0.7771,31.6162,-38.5132,-25.2686
5331.597,0.085,-0.6181,0.7741,31.6162,-38.4521,-24.9023
5335.406,0.085,-0.6147,0.7739,32.2266,-38.5742,-24.9023
5340.733,0.0831,-0.6132,0.7724,32.5317,-38.0859,-24.7803
5343.735,0.0818,-0.6115,0.769,32.5928,-37.7808,-24.5972
5347.55,0.0792,-0.6105,0.7695,32.8369,-37.7197,-24.4141
5351.434,0.0799,-0.6088,0.7749,32.8979,-37.0483,-24.353
5355.506,0.0816,-0.6113,0.7822,32.6538,-36.5601,-24.5361
5359.463,0.0811,-0.6188,0.7819,32.5317,-35.6445,-24.5972
5363.96,0.0789,-0.6186,0.7868,32.8369,-35.0952,-24.7803
5368.038,0.074,-0.6186,0.791,32.7148,-34.4849,-24.9634
5373.044,0.0694,-0.6262,0.7995,32.5317,-34.2407,-25.2686
5376.104,0.0662,-0.6327,0.8066,32.1655,-33.7524,-25.4517
5379.447,0.0596,-0.6364,0.8137,31.9824,-33.8135,-25.8179
5383.456,0.0494,-0.6432,0.8173,31.0669,-33.6304,-25.8789
5387.531,0.0474,-0.6432,0.8127,31.0669,-33.8745,-26.123
5391.512,0.0496,-0.6489,0.812,30.5786,-34.3018,-26.4282
5395.544,0.0508,-0.6491,0.8159,30.3955,-34.3628,-26.6724
5399.469,0.0533,-0.6501,0.8188,30.0293,-34.668,-26.9165
5404.584,0.0547,-0.6542,0.8183,29.8462,-34.729,-27.2827
5407.489,0.054,-0.6506,0.8171,29.6631,-34.729,-27.3438
5411.406,0.063,-0.6486,0.8105,29.541,-34.79,-27.3438
5415.376,0.0665,-0.6454,0.8083,29.1138,-34.79,-27.2827
5419.485,0.0687,-0.643,0.8059,28.9307,-34.8511,-27.3438
5423.421,0.0691,-0.6364,0.8085,29.0527,-35.0952,-27.3438
5427.326,0.0709,-0.6303,0.8059,28.6255,-35.0342,-27.3438
5431.509,0.0728,-0.632,0.8005,28.3813,-35.4004,-27.3438
5437.314,0.0755,-0.6293,0.7971,28.1982,-35.4004,-27.2217
5440.332,0.0772,-0.6296,0.7932,27.9541,-35.7666,-27.2217
5443.408,0.0784,-0.6308,0.788,28.3203,-36.0718,-27.1606
5447.422,0.0809,-0.6291,0.7854,28.4424,-36.0107,-26.8555
5451.433,0.0879,-0.6286,0.7873,28.3813,-35.7666,-26.7334
5455.457,0.0899,-0.631,0.79,28.1372,-35.4004,-26.5503
5459.319,0.0955,-0.633,0.79,28.6255,-34.79,-26.4282
5463.394,0.0931,-0.6345,0.7915,28.8086,-34.1187,-26.4282
5470.433,0.0911,-0.6349,0.7897,28.7476,-33.3862,-26.3062
5473.476,0.087,-0.6379,0.7824,28.9917,-32.8369,-26.062
5476.484,0.0782,-0.6367,0.7744,29.48,-32.8369,-25.7568
5479.52,0.0704,-0.6347,0.7702,29.8462,-32.7759,-25.5127
5483.343,0.0645,-0.6303,0.7758,30.8838,-32.7759,-25.5127
5487.382,0.0635,-0.631,0.7849,30.8838,-32.8979,-25.5737
5491.415,0.067,-0.6396,0.7846,30.8838,-33.0811,-25.6348
5495.482,0.066,-0.644,0.7856,30.8838,-33.4473,-25.5127
5499.381,0.0694,-0.6496,0.7807,31.1279,-33.9355,-25.4517
5503.332,0.0709,-0.653,0.7783,31.9824,-34.3018,-25.2686
5507.263,0.0699,-0.6467,0.7788,32.3486,-34.4849,-25.0244
5511.384,0.0684,-0.6457,0.7829,33.1421,-34.8511,-24.9023
5515.267,0.0694,-0.6406,0.7866,33.1421,-35.2173,-24.9023
5519.29,0.0709,-0.6398,0.7846,33.3862,-35.6445,-25.0244
5523.252,0.0677,-0.6357,0.7788,33.4473,-35.5835,-25.0244
5527.434,0.0618,-0.6364,0.7731,33.9355,-35.7666,-24.9634
5531.364,0.0599,-0.6266,0.7712,34.3018,-35.9497,-24.8413
5536.138,0.0587,-0.6259,0.7731,34.2407,-35.9497,-25.0854
5539.377,0.0594,-0.6249,0.7802,34.1797,-35.7666,-25.2686
5543.36,0.0674,-0.6308,0.7858,34.2407,-35.5225,-25.4517
5547.411,0.0711,-0.6347,0.7927,35.0342,-35.4004,-25.7568
5551.322,0.0691,-0.6398,0.7968,34.3018,-35.2173,-25.9399
5555.384,0.066,-0.641,0.7959,34.668,-35.3394,-26.062
5559.384,0.0601,-0.6413,0.7927,34.8511,-35.4614,-25.9399
5563.385,0.0604,-0.6415,0.7876,34.8511,-35.2173,-26.001
5571.122,0.0577,-0.6357,0.7883,35.1562,-35.2783,-26.1841
5575.196,0.0562,-0.6364,0.7924,35.4004,-35.4614,-26.1841
5579.352,0.0557,-0.6413,0.789,35.5225,-35.7056,-26.2451
5583.366,0.0643,-0.6367,0.7839,35.8276,-35.9497,-26.1841
5587.206,0.065,-0.6362,0.7751,35.8276,-36.377,-26.001
5591.365,0.0662,-0.632,0.7702,35.8887,-36.499,-25.6348
5595.284,0.0677,-0.6249,0.7714,36.377,-36.5601,-25.5737
5600.272,0.0728,-0.6218,0.781,36.1328,-36.7432,-25.5127
5603.312,0.0792,-0.6188,0.7897,36.5601,-36.8042,-25.5737
5607.217,0.0777,-0.6244,0.7932,36.377,-36.9873,-25.5127
5611.328,0.076,-0.6296,0.7932,36.0107,-36.9263,-25.3296
5615.27,0.0716,-0.6296,0.7917,35.7666,-36.8042,-24.9634
5619.243,0.0709,-0.6293,0.7905,35.9497,-36.9873,-24.5361
5623.29,0.0696,-0.6325,0.7941,36.6211,-36.9873,-24.4751
5627.351,0.0684,-0.6396,0.798,36.1938,-37.3535,-24.5361
5632.289,0.0704,-0.6423,0.8002,36.438,-37.5366,-24.4141
5635.259,0.0721,-0.6459,0.8027,36.499,-37.8418,-24.4751
5639.299,0.0748,-0.6498,0.8046,36.1938,-37.9639,-24.292
5643.327,0.0704,-0.6537,0.8034,36.2549,-38.269,-24.1089
5647.163,0.0645,-0.6574,0.8027,36.5601,-38.269,-23.9868
5651.234,0.0618,-0.6564,0.7956,36.7432,-38.5742,-23.8037
5655.26,0.0613,-0.6501,0.7917,36.8042,-38.8184,-23.5596
5659.294,0.0611,-0.6457,0.7917,37.1094,-39.4897,-23.4985
5664.982,0.0587,-0.6418,0.7937,37.1704,-39.6118,-23.4375
5667.803,0.0687,-0.6396,0.7922,37.2925,-39.978,-23.4375
5673.467,0.0706,-0.6367,0.7919,37.4756,-39.7949,-23.5596
5676.451,0.0716,-0.634,0.7915,36.9873,-39.856,-23.4985
5679.701,0.0704,-0.6313,0.7839,37.3535,-39.917,-23.4375
5683.268,0.075,-0.6284,0.7795,37.5977,-39.6118,-23.4375
5687.204,0.0726,-0.6235,0.7763,37.7808,-39.3066,-23.4375
5691.18,0.0687,-0.6196,0.7727,37.9639,-39.1846,-23.4375
5696.66,0.0706,-0.6174,0.7736,38.0859,-39.1846,-23.5596
5699.724,0.0721,-0.6149,0.7788,38.6963,-38.6963,-23.6816
5703.098,0.0735,-0.6183,0.7858,38.269,-38.5132,-23.9868
5707.153,0.0787,-0.6193,0.791,38.5742,-38.3301,-24.292
5711.252,0.0806,-0.6201,0.7951,38.3911,-38.4521,-24.5972
5715.161,0.087,-0.623,0.7978,38.147,-37.9028,-24.5972
5719.083,0.0882,-0.6262,0.8032,37.4146,-37.1704,-24.7192
5723.112,0.0845,-0.6259,0.8059,37.3535,-36.6821,-24.7803
5728.678,0.0777,-0.6359,0.8046,37.1094,-36.0718,-24.7803
5731.736,0.0628,-0.6364,0.802,37.2314,-35.5225,-24.9023
5735.164,0.0518,-0.634,0.7971,37.0483,-35.2173,-24.7803
5739.102,0.0496,-0.6362,0.7902,36.6821,-35.6445,-24.9634
5743.186,0.0477,-0.6354,0.7902,36.8652,-35.7666,-25.0854
5747.208,0.0518,-0.6284,0.7976,37.1704,-36.1938,-25.3296
5751.167,0.0591,-0.6271,0.8039,37.1704,-36.3159,-25.5737
5755.157,0.0635,-0.6284,0.8083,36.438,-36.5601,-25.6348
5760.845,0.0735,-0.6303,0.8085,36.3159,-36.6211,-25.6958
5763.819,0.0789,-0.6327,0.8071,36.377,-36.7432,-25.6348
5767.445,0.0806,-0.6279,0.8037,36.5601,-37.0483,-25.4517
5771.129,0.0794,-0.6242,0.802,36.6211,-36.9873,-25.1465
5775.631,0.0787,-0.6213,0.8022,36.499,-36.8652,-24.9023
5779.096,0.0753,-0.621,0.8042,36.0107,-36.8042,-24.9023
5783.059,0.0728,-0.6208,0.7983,35.9497,-36.8652,-24.9023
5787.104,0.076,-0.6205,0.7949,36.1328,-37.1704,-24.7803
5791.037,0.0755,-0.6222,0.7927,36.2549,-37.2314,-24.8413
5795.394,0.0772,-0.6218,0.799,36.0718,-37.1094,-24.7803
5799.104,0.0735,-0.6247,0.7907,36.5601,-37.2314,-24.9634
5803.075,0.0767,-0.6225,0.7858,36.3159,-37.2314,-24.7192
5807.007,0.0743,-0.6215,0.7795,36.499,-37.0483,-24.5972
5810.998,0.077,-0.6152,0.78,36.7432,-36.8652,-24.5361
5815.103,0.0721,-0.613,0.789,36.5601,-36.377,-24.7192
5819.051,0.0687,-0.6183,0.8012,36.2549,-36.0107,-24.9634
5823.055,0.0657,-0.624,0.8095,36.0107,-35.6445,-25.1465
5827.981,0.0682,-0.6244,0.8093,35.6445,-35.5835,-25.3906
5831.025,0.0662,-0.6296,0.8098,35.7056,-35.5225,-25.3906
5835.156,0.0696,-0.6332,0.8105,35.9497,-35.6445,-25.5737
5839.049,0.0694,-0.6345,0.8059,35.5835,-35.3394,-25.5127
5843.072,0.0655,-0.6347,0.8005,35.5225,-35.2173,-25.4517
5847.103,0.0616,-0.6281,0.7939,35.4614,-35.4614,-25.2686
5851.041,0.0611,-0.6227,0.7863,35.7056,-35.5225,-25.3906
5855.093,0.0645,-0.6149,0.7805,36.0107,-35.4004,-25.4517
5860.154,0.0626,-0.6135,0.7819,35.8276,-35.4004,-25.6958
5863.21,0.0723,-0.6066,0.7888,35.7666,-34.8511,-25.8179
5867.036,0.076,-0.6093,0.7978,35.5225,-34.79,-26.123
5871.038,0.0782,-0.6149,0.8015,35.5225,-34.4238,-26.4282
5876.029,0.0782,-0.6135,0.8029,35.1562,-33.9355,-26.3672
5879.821,0.0745,-0.6201,0.7978,34.9731,-33.6914,-26.3672
5883.075,0.074,-0.6193,0.7944,34.9731,-33.02,-26.3062
5887.046,0.0652,-0.6188,0.7949,35.0342,-33.02,-26.4282
5892.095,0.0604,-0.6144,0.7993,35.2173,-32.6538,-26.7334
5895.364,0.0589,-0.6198,0.8051,34.9121,-32.7759,-27.0386
5899.008,0.0628,-0.6227,0.8024,34.3628,-32.5928,-27.3438
5902.983,0.0657,-0.6274,0.8029,34.3628,-32.5317,-27.6489
5907.057,0.0635,-0.6308,0.8015,34.0576,-32.4707,-27.6489
5911.037,0.0577,-0.6281,0.8002,34.1797,-32.2876,-27.6489
5915.072,0.0626,-0.6323,0.8,34.3628,-32.0435,-27.771
5918.995,0.0606,-0.6332,0.8002,34.6069,-32.2876,-27.832
5923.911,0.0555,-0.6308,0.8049,34.3628,-32.2876,-27.771
5927.131,0.0535,-0.6308,0.8027,34.3628,-32.4097,-27.71
5931.102,0.0543,-0.6276,0.7968,34.3018,-32.7148,-27.5269
5934.958,0.0611,-0.6259,0.7932,34.4849,-33.1421,-27.3438
5938.93,0.0652,-0.6247,0.7907,34.729,-33.6304,-27.0996
5942.896,0.0723,-0.6161,0.7922,34.729,-33.9966,-26.9165
5946.912,0.0735,-0.6093,0.7924,35.2783,-34.3628,-26.5503
5950.881,0.0799,-0.6103,0.8032,35.2783,-34.4849,-26.4282
5956.172,0.0792,-0.6061,0.8063,34.729,-34.8511,-26.3672
5959.23,0.0816,-0.6132,0.809,34.6069,-35.1562,-26.123
5962.97,0.0836,-0.6193,0.8071,34.4238,-35.2783,-25.8789
5967.015,0.0858,-0.6152,0.8042,34.2407,-35.3394,-25.5127
5971.038,0.0772,-0.6125,0.8007,34.1797,-35.4004,-25.2075
5974.92,0.0745,-0.6113,0.8005,34.1797,-35.2783,-25.0854
5980.378,0.0731,-0.6127,0.7988,34.0576,-35.1562,-24.9023
5983.42,0.0721,-0.6183,0.7985,33.8745,-35.4004,-24.6582
5988.49,0.0713,-0.6166,0.7973,33.7524,-35.3394,-24.5972
5991.551,0.0743,-0.6171,0.8046,33.4473,-35.3394,-24.353
5994.956,0.0713,-0.6208,0.8081,33.02,-35.1562,-24.1699
5998.931,0.0723,-0.623,0.8134,32.8979,-35.0342,-23.9868
6002.962,0.0696,-0.6249,0.8149,32.6538,-34.9121,-23.9258
6006.95,0.067,-0.6244,0.8171,32.2266,-35.0342,-23.8037
6010.993,0.0648,-0.6279,0.8134,32.0435,-35.2783,-23.7427
6014.922,0.0677,-0.6308,0.8078,32.3486,-35.4614,-23.8647
6020.059,0.066,-0.6266,0.8044,32.2876,-35.6445,-23.9868
6022.987,0.0655,-0.6269,0.8017,31.7993,-35.4004,-23.8647
6026.837,0.0655,-0.6242,0.7988,31.6772,-35.2783,-23.9868
6030.808,0.0626,-0.6191,0.8029,31.7383,-34.5459,-24.292
6034.976,0.0596,-0.6193,0.8085,31.8604,-34.1797,-24.4751
6038.834,0.0601,-0.6193,0.8105,30.7617,-34.1797,-24.5972
6042.956,0.0626,-0.6269,0.8093,31.1279,-33.8135,-25.0244
6046.899,0.0657,-0.6266,0.8063,31.0669,-33.4473,-25.2686
6052.571,0.0621,-0.6327,0.8024,31.0669,-33.02,-25.4517
6055.544,0.055,-0.6305,0.8005,31.0669,-32.6538,-25.4517
6058.791,0.0506,-0.6296,0.8012,31.311,-32.5317,-25.5737
6062.837,0.0474,-0.6325,0.8017,31.1279,-32.4707,-25.7568
6066.973,0.0418,-0.6337,0.7941,31.3721,-32.8979,-25.8179
6070.826,0.0418,-0.6354,0.7846,31.4331,-33.5693,-25.6958
6074.902,0.0482,-0.6257,0.7819,31.6772,-34.2407,-25.3906
6078.841,0.0525,-0.622,0.7883,32.0435,-34.729,-25.3296
6082.91,0.0667,-0.6193,0.7951,32.1655,-34.9121,-25.2075
6087.773,0.074,-0.6171,0.7988,32.1045,-35.5225,-25.0854
6091.091,0.0731,-0.6135,0.798,32.4097,-35.6445,-24.9634
6094.781,0.076,-0.6132,0.7941,32.2266,-35.7056,-24.4751
6098.931,0.0718,-0.6127,0.7937,32.3486,-35.8887,-24.1699
6102.767,0.0753,-0.6118,0.7978,32.4707,-35.9497,-24.0479
6106.75,0.077,-0.6166,0.8015,32.7148,-36.3159,-24.0479
6110.929,0.0799,-0.6179,0.8054,32.8979,-36.5601,-23.9258
6114.767,0.0753,-0.6271,0.8073,32.6538,-36.438,-23.7427
6119.757,0.0748,-0.6315,0.8076,32.8369,-36.5601,-23.6816
6122.903,0.0723,-0.6357,0.8068,32.5928,-36.438,-23.5596
6126.912,0.0716,-0.6389,0.8042,32.4707,-36.2549,-23.3765
6130.825,0.0689,-0.6369,0.8039,32.7759,-36.2549,-23.3765
6134.796,0.0591,-0.6367,0.8044,32.5317,-35.7666,-23.4375
6138.784,0.0587,-0.6391,0.8042,32.7759,-35.9497,-23.6816
6142.797,0.0538,-0.6391,0.7902,32.8369,-36.0107,-23.7427
6146.851,0.0528,-0.6342,0.7893,32.8979,-36.1328,-23.7427
6152.145,0.0484,-0.6286,0.7912,33.3862,-35.7666,-23.8037
6155.104,0.0516,-0.624,0.7968,33.7524,-35.8887,-24.1699
6158.812,0.0513,-0.6208,0.7897,33.3862,-35.8276,-24.5972
6162.855,0.0569,-0.6196,0.7758,33.2031,-35.6445,-24.7803
6166.857,0.0557,-0.6098,0.7751,33.5083,-35.2173,-24.8413
6170.707,0.0567,-0.6059,0.7822,33.7524,-34.729,-25.2075
6174.714,0.0565,-0.6037,0.7932,33.7524,-34.1187,-25.8179
6178.786,0.055,-0.6115,0.8015,33.02,-33.8135,-26.2451
6186.088,0.0543,-0.6135,0.8081,33.0811,-33.7524,-26.7334
6189.568,0.0506,-0.6188,0.8081,32.5317,-33.6914,-27.1606
6192.513,0.0491,-0.6257,0.81,32.1655,-33.5083,-27.2217
6195.558,0.0501,-0.6293,0.8071,32.2876,-33.7524,-27.5879
6198.779,0.0484,-0.6303,0.8046,31.9824,-34.1187,-27.832
6202.67,0.0501,-0.6318,0.8059,32.2266,-33.9966,-28.0762
6206.709,0.0516,-0.633,0.8024,31.8604,-33.8745,-28.1982
6210.761,0.0511,-0.6327,0.7988,31.7383,-33.8745,-28.3203
6214.837,0.0523,-0.6281,0.7883,31.6162,-33.9355,-28.3203
6219.619,0.0525,-0.6262,0.7756,32.1655,-34.1187,-28.3203
6222.819,0.0506,-0.6208,0.7766,32.7148,-33.9355,-28.2593
6226.673,0.0569,-0.6125,0.7814,32.5317,-33.9966,-28.1982
6230.773,0.0623,-0.6086,0.7895,32.3486,-33.8135,-28.1982
6234.713,0.0616,-0.6098,0.7961,32.1655,-33.8135,-28.2593
6238.834,0.0643,-0.6171,0.7966,31.9824,-33.9355,-28.0762
6242.697,0.0623,-0.6149,0.7956,32.2266,-34.4238,-27.8931
6246.691,0.0648,-0.6188,0.7937,32.1655,-35.0342,-27.71
6251.733,0.0679,-0.6144,0.7966,32.0435,-35.5225,-27.4658
6254.724,0.0687,-0.6142,0.8046,32.3486,-36.0107,-27.4048
6258.763,0.0721,-0.621,0.8117,32.2876,-36.5601,-27.3438
6262.757,0.0767,-0.624,0.8042,32.3486,-36.9263,-27.3438
6266.751,0.0796,-0.6257,0.7963,31.6162,-36.8042,-26.9165
6270.625,0.0735,-0.631,0.7866,32.4097,-36.8042,-26.5503
6274.703,0.0648,-0.6279,0.7814,32.2876,-36.8652,-26.1841
6278.715,0.0608,-0.6235,0.7839,32.8369,-36.9873,-25.9399
6285.763,0.0621,-0.6213,0.7963,32.5928,-37.1094,-26.001
6289.358,0.064,-0.6215,0.8032,32.5317,-37.4756,-26.1841
6292.396,0.0691,-0.6249,0.8071,32.1045,-37.5366,-26.2451
6295.332,0.0718,-0.6262,0.8037,31.9214,-37.2925,-26.3062
6298.659,0.0753,-0.6269,0.7985,31.7993,-36.8652,-26.2451
6302.66,0.067,-0.6266,0.7988,32.0435,-36.1938,-26.1841
6306.68,0.0657,-0.6274,0.7976,32.1045,-35.7056,-26.1841
6310.761,0.0606,-0.6244,0.8007,31.9214,-35.3394,-26.3672
6315.956,0.055,-0.6318,0.8032,31.8604,-35.4004,-26.4893
6318.6,0.0528,-0.6352,0.8012,31.7993,-35.2783,-26.8555
6322.717,0.0511,-0.6381,0.7968,31.6162,-35.2783,-26.7944
6326.602,0.0457,-0.6391,0.7956,31.7383,-35.2173,-27.0386
6330.675,0.042,-0.6423,0.7927,31.7993,-35.0952,-27.1606
6334.621,0.044,-0.6362,0.7929,31.7383,-35.2173,-27.1606
6338.699,0.0486,-0.6352,0.8012,32.2266,-35.3394,-27.4048
6342.712,0.0555,-0.6349,0.8112,31.7993,-35.8276,-27.8931
6348.045,0.0601,-0.6369,0.812,31.9214,-35.8887,-28.1372
6351.073,0.063,-0.6418,0.8068,32.0435,-36.0107,-28.3813
6354.717,0.0635,-0.641,0.8012,31.9824,-36.0107,-28.3813
6358.533,0.0684,-0.641,0.7954,32.0435,-35.7056,-28.2593
6362.698,0.0701,-0.632,0.7893,32.3486,-35.4004,-28.0762
6366.529,0.0726,-0.6308,0.7878,32.7148,-35.0342,-28.1982
6370.612,0.0721,-0.6271,0.7856,33.2642,-34.79,-28.3813
6374.605,0.0716,-0.6252,0.7802,33.1421,-34.4849,-28.3203
6380.185,0.0709,-0.6213,0.7756,33.6914,-34.1187,-28.3813
6383.384,0.0696,-0.6188,0.7832,33.6304,-33.4473,-28.3203
6388.349,0.0716,-0.6198,0.7929,33.3862,-33.1421,-28.6255
6392.006,0.0762,-0.6198,0.798,33.4473,-32.4707,-28.6865
6395.053,0.0801,-0.6264,0.8017,33.5083,-31.8604,-28.9917
6398.65,0.0779,-0.6354,0.8002,33.3862,-31.311,-28.8696
6402.568,0.0728,-0.6347,0.8032,32.8979,-30.7007,-28.7476
6406.548,0.0696,-0.6384,0.7978,33.3862,-30.2734,-28.9307
6412.228,0.067,-0.642,0.7946,33.8135,-30.2124,-28.9307
6415.237,0.0579,-0.6415,0.7863,33.9966,-30.4565,-28.8696
6418.51,0.0604,-0.6323,0.7858,34.1187,-30.6396,-28.8086
6422.654,0.0572,-0.6288,0.7883,34.729,-30.7007,-29.0527
6426.485,0.056,-0.6203,0.791,34.4238,-31.0059,-29.1748
6430.605,0.065,-0.6227,0.798,34.3018,-31.3721,-29.3579
6434.595,0.0687,-0.6252,0.801,33.9966,-31.3721,-29.48
6438.496,0.074,-0.6279,0.8029,33.9966,-31.189,-29.6021
6444.418,0.0738,-0.6318,0.7995,34.1187,-31.25,-29.6631
6447.421,0.0806,-0.6271,0.7973,33.9966,-31.1279,-29.7241
6450.848,0.0755,-0.6222,0.7998,34.729,-30.4565,-29.7852
6454.562,0.0723,-0.622,0.7995,33.6914,-29.9683,-29.7852
6458.465,0.0689,-0.6213,0.7944,33.8135,-29.7852,-30.0293
6462.604,0.0618,-0.6208,0.789,33.5693,-29.7852,-30.0903
6466.542,0.0574,-0.6174,0.7885,33.3862,-29.3579,-30.3345
6470.507,0.0504,-0.6179,0.7905,33.3862,-29.2358,-30.8228
6474.504,0.0496,-0.6188,0.7727,33.02,-29.1748,-31.0059
6479.658,0.0411,-0.6147,0.7558,33.2031,-29.2969,-31.0059
6483.427,0.0403,-0.6078,0.768,32.2266,-29.1748,-31.0669
6487.023,0.0369,-0.5971,0.7983,32.4707,-28.7476,-31.7383
6492.619,0.0399,-0.6054,0.8212,31.311,-28.9307,-32.4707
6495.585,0.0408,-0.6181,0.8286,30.3955,-28.9307,-32.7759
6498.97,0.0413,-0.6308,0.812,29.6021,-29.1138,-32.7148
6502.441,0.0413,-0.6364,0.7988,29.1138,-29.3579,-32.1655
6506.476,0.0377,-0.6305,0.7951,28.9917,-29.7852,-31.8604
6511.84,0.0311,-0.632,0.8076,29.48,-30.5786,-31.9824
6515.289,0.0308,-0.6298,0.8139,29.48,-31.3721,-32.1655
6518.515,0.0325,-0.632,0.8129,29.2358,-32.5317,-31.9824
6522.389,0.0399,-0.6342,0.8068,28.9917,-34.0576,-31.7383
6526.559,0.0479,-0.6347,0.7968,28.4424,-35.7666,-31.311
6530.384,0.0569,-0.6362,0.79,28.4424,-37.1094,-30.7007
6534.472,0.0645,-0.6323,0.7905,29.0527,-38.147,-30.2734
6538.407,0.0711,-0.6198,0.7912,28.9917,-38.6353,-29.6631
6543.405,0.0733,-0.6137,0.7954,28.9307,-38.8794,-29.4189
6546.454,0.0762,-0.6074,0.8044,28.5034,-39.0625,-29.0527
6550.444,0.0777,-0.6115,0.8112,27.6489,-39.2456,-28.7476
6554.508,0.0765,-0.6181,0.8098,27.5879,-39.856,-28.8086
6558.465,0.0748,-0.6264,0.8049,27.2217,-40.4663,-28.4424
6562.504,0.0701,-0.6296,0.8046,27.2827,-40.4053,-28.0151
6566.383,0.0589,-0.6313,0.8073,27.0996,-40.5884,-27.771
6570.352,0.0528,-0.642,0.8042,27.0386,-41.1987,-27.5879
6575.518,0.0442,-0.6484,0.8024,27.1606,-41.687,-27.71
6578.59,0.0396,-0.6567,0.7983,27.5269,-42.1753,-27.832
6582.444,0.0379,-0.6589,0.7878,28.0151,-42.4805,-28.0151
6586.481,0.0357,-0.6598,0.7739,28.2593,-42.9688,-27.9541
6590.489,0.0416,-0.6535,0.7644,28.9917,-43.5181,-28.0762
6594.78,0.0518,-0.6454,0.7641,29.6021,-43.8232,-28.3203
6598.46,0.0679,-0.6403,0.7666,30.3955,-43.6401,-28.7476
6602.381,0.0782,-0.6379,0.768,30.8228,-43.457,-29.1138
6607.634,0.0882,-0.6367,0.7663,31.1279,-42.6636,-29.48
6610.916,0.0941,-0.6408,0.7648,31.9824,-41.4429,-29.7852
6614.343,0.0901,-0.6367,0.7692,32.2876,-40.9546,-30.1514
6618.32,0.0858,-0.6354,0.7768,32.959,-39.856,-30.5176
6622.387,0.0767,-0.6332,0.778,33.2031,-39.2456,-30.7617
6626.365,0.0745,-0.6367,0.7788,33.6914,-38.8794,-31.311
6630.29,0.0726,-0.6384,0.7744,33.9355,-38.4521,-31.6162
6634.399,0.0696,-0.634,0.7697,34.4238,-38.3911,-32.1045
6640.317,0.0633,-0.6357,0.7668,35.1562,-37.9639,-32.4707
6643.402,0.0635,-0.6325,0.7641,35.6445,-37.8418,-32.8369
6646.442,0.0543,-0.6305,0.7644,35.4004,-37.8418,-33.3252
6650.372,0.0557,-0.6279,0.7658,36.0718,-37.5977,-33.8135
6654.381,0.0545,-0.6244,0.7648,36.377,-37.3535,-34.1797
6658.352,0.0618,-0.6227,0.7695,36.9873,-36.9263,-34.5459
6662.408,0.0711,-0.6193,0.779,36.6821,-36.2549,-34.8511
6666.414,0.0728,-0.6225,0.79,36.438,-35.8887,-35.2783
6672.158,0.0777,-0.6269,0.7954,36.6211,-35.5225,-35.5835
6675.276,0.0821,-0.6298,0.8012,36.0718,-35.4614,-35.7666
6678.316,0.084,-0.6325,0.8024,36.2549,-35.4614,-35.9497
6682.283,0.0814,-0.6374,0.8127,36.1938,-35.5225,-36.0718
6686.349,0.0767,-0.6398,0.8154,35.4614,-35.5835,-36.1328
6690.356,0.0735,-0.6437,0.8171,35.3394,-36.1328,-36.3159
6695.353,0.0704,-0.6501,0.8139,35.0342,-36.7432,-36.499
6699.002,0.0655,-0.6481,0.812,34.9731,-37.2925,-36.499
6704.016,0.065,-0.6503,0.8054,34.668,-38.0249,-36.438
6706.556,0.0665,-0.653,0.8015,34.729,-38.3911,-36.2549
6710.261,0.0711,-0.653,0.8044,34.2407,-38.3911,-36.0718
6714.236,0.0772,-0.6518,0.8103,33.8745,-38.5132,-35.8887
6718.235,0.0809,-0.6493,0.812,33.7524,-38.269,-35.7056
6722.389,0.0792,-0.6457,0.8078,33.3252,-38.6353,-35.5225
6726.232,0.0838,-0.6428,0.8015,33.2642,-38.5742,-35.0342
6730.382,0.0897,-0.6381,0.7998,33.3252,-38.3911,-34.4238
6734.201,0.0948,-0.6296,0.8002,33.0811,-38.5132,-33.9966
6738.268,0.1021,-0.622,0.8059,32.7759,-38.6353,-33.6304
6742.381,0.1077,-0.6225,0.8027,32.7148,-38.5132,-33.2642
6746.234,0.1063,-0.6149,0.7927,32.0435,-38.7573,-32.7759
6750.285,0.1099,-0.6142,0.7871,31.5552,-38.6963,-32.1655
6754.32,0.1067,-0.6064,0.7868,31.5552,-38.5742,-31.7383
6758.328,0.1114,-0.6037,0.79,31.189,-38.269,-31.3721
6762.33,0.116,-0.6022,0.7954,31.0669,-37.9028,-31.189
6766.358,0.1129,-0.6081,0.8005,30.5176,-37.4756,-30.9448
6770.953,0.1087,-0.6127,0.7973,29.7852,-36.9873,-30.7617
6774.264,0.1041,-0.6254,0.7959,30.0903,-36.6821,-30.6396
6778.18,0.0928,-0.6318,0.7961,29.8462,-36.499,-30.3345
6782.158,0.0889,-0.6371,0.7876,29.9683,-36.3159,-30.2734
6786.351,0.0801,-0.6401,0.7829,30.2734,-36.438,-30.2734
6790.207,0.0772,-0.642,0.778,30.4565,-36.2549,-30.0903
6794.352,0.075,-0.6442,0.7785,30.8228,-36.2549,-30.0293
6799.771,0.0772,-0.6371,0.7773,31.189,-36.5601,-30.0293
6804.695,0.0855,-0.6337,0.7741,31.9214,-36.8042,-30.2124
6807.771,0.0889,-0.6264,0.7712,32.2876,-36.6211,-30.2734
6810.701,0.0931,-0.6218,0.7634,32.4097,-36.438,-30.2124
6814.227,0.0928,-0.6154,0.7558,32.6538,-35.9497,-30.2124
6818.128,0.0967,-0.6103,0.7568,33.0811,-35.4004,-30.3345
6822.278,0.0965,-0.6069,0.7597,33.2031,-34.6069,-30.5786
6826.183,0.0923,-0.603,0.7641,33.7524,-34.3018,-30.9448
6830.156,0.0928,-0.6071,0.7619,33.6304,-33.6914,-31.311
6834.29,0.0884,-0.6059,0.7607,33.1421,-33.02,-31.3721
6838.263,0.0887,-0.6105,0.7619,33.5693,-32.5317,-31.4941
6842.18,0.0855,-0.6103,0.7724,33.9355,-32.2876,-31.5552
6846.293,0.0862,-0.6171,0.781,33.8745,-32.0435,-31.7383
6850.134,0.0879,-0.6208,0.7937,34.1187,-31.9214,-32.1045
6854.262,0.0897,-0.6313,0.7973,33.6914,-32.1655,-32.4707
6858.156,0.0911,-0.6374,0.799,33.5083,-32.5928,-32.7148
6862.179,0.095,-0.6391,0.8007,33.9966,-33.1421,-32.7759
6866.104,0.0982,-0.6406,0.8044,34.1187,-33.5693,-32.7759
6870.98,0.0997,-0.645,0.8063,34.2407,-33.8745,-32.7148
6874.319,0.1048,-0.6462,0.8061,34.2407,-34.1797,-32.8369
6878.219,0.106,-0.6493,0.8034,33.6304,-34.0576,-32.7148
6882.158,0.1026,-0.6535,0.7983,33.6304,-34.2407,-32.4707
6886.136,0.0967,-0.6486,0.7932,34.4238,-34.3628,-32.4097
6890.111,0.0899,-0.6464,0.7844,34.2407,-34.668,-32.2876
6894.252,0.0838,-0.6418,0.7797,33.9966,-35.0342,-32.1045
6898.232,0.0853,-0.6364,0.7753,34.2407,-35.4614,-31.9214
6904.022,0.0865,-0.6345,0.7807,35.0342,-35.4004,-31.9214
6907.173,0.095,-0.6264,0.7924,34.729,-35.2783,-31.9824
6910.094,0.1002,-0.6257,0.801,34.729,-34.668,-32.0435
6914.235,0.1063,-0.6218,0.8002,34.0576,-34.4238,-32.0435
6918.233,0.1028,-0.6264,0.8002,33.8135,-34.0576,-31.9824
6922.198,0.1041,-0.6244,0.802,33.5693,-33.4473,-31.7993
6926.202,0.0999,-0.6237,0.8037,33.0811,-33.3862,-31.6772
6930.206,0.0923,-0.6284,0.8042,32.5928,-33.3252,-31.6162
6935.331,0.096,-0.6315,0.801,32.6538,-33.2642,-31.6162
6938.064,0.0972,-0.6349,0.7973,32.3486,-33.3862,-31.4941
6942.165,0.0928,-0.6327,0.7973,32.5928,-33.5693,-31.4331
6946.179,0.0921,-0.6342,0.79,32.1045,-33.6914,-31.1279
6950.083,0.0884,-0.6374,0.7917,32.4097,-33.9355,-30.8838
6954.072,0.0809,-0.6403,0.7941,31.9214,-34.3018,-30.5786
6958.099,0.0814,-0.641,0.7924,32.0435,-35.0952,-30.1514
6962.056,0.0843,-0.6415,0.7919,32.4097,-35.9497,-29.7852
6967.777,0.0858,-0.6432,0.7917,32.6538,-36.7432,-29.48
6970.837,0.0884,-0.6418,0.7951,32.7759,-37.4756,-29.2358
6974.196,0.0955,-0.6398,0.7897,33.1421,-38.269,-28.8696
6978.156,0.0989,-0.6403,0.7827,33.3862,-38.9404,-28.5645
6982.101,0.1026,-0.6371,0.7729,33.9355,-39.7949,-28.3203
6986.132,0.1075,-0.6249,0.7705,34.5459,-40.1611,-28.2593
6990.046,0.1116,-0.6147,0.7722,34.79,-40.3442,-28.0151
6994.003,0.1097,-0.6096,0.7819,35.1562,-40.5884,-27.8931
7001.903,0.1107,-0.6152,0.7902,34.6069,-40.7715,-28.2593
7006.155,0.1028,-0.622,0.7792,33.9355,-40.7715,-27.8931
7010.128,0.1021,-0.6247,0.7697,34.2407,-40.5273,-27.5269
7014.143,0.1014,-0.6205,0.7749,34.729,-40.1611,-27.5879
7017.959,0.1048,-0.6174,0.7841,34.8511,-39.7339,-27.832
7021.97,0.1082,-0.622,0.7912,34.9731,-38.9404,-28.1982
7025.997,0.1085,-0.6215,0.7907,34.8511,-38.3911,-28.2593
7030.018,0.1063,-0.6225,0.79,34.668,-38.0249,-28.3203
7034.952,0.1077,-0.6225,0.791,34.4849,-37.6587,-28.4424
7037.965,0.1077,-0.6257,0.7922,34.4238,-37.1704,-28.5645
7042.059,0.1031,-0.6281,0.7946,33.9355,-36.8652,-28.5645
7045.962,0.1006,-0.6271,0.7939,34.3628,-36.5601,-28.7476
7050.11,0.0982,-0.6323,0.7927,34.3018,-36.377,-28.9917
7054.088,0.0958,-0.6323,0.7851,33.9966,-36.2549,-28.9917
7057.935,0.095,-0.6281,0.78,34.668,-36.1938,-29.0527
7061.919,0.0909,-0.6298,0.7753,34.668,-36.1938,-29.1138
7066.897,0.0938,-0.6244,0.7746,34.668,-35.8887,-29.1748
7070.048,0.0945,-0.6208,0.7778,34.668,-36.1328,-29.2969
7074.11,0.095,-0.6186,0.7844,34.2407,-35.8887,-29.3579
7078.055,0.0967,-0.6208,0.7897,34.4238,-35.6445,-29.6021
7082.07,0.1009,-0.6257,0.7941,34.1797,-35.3394,-29.7852
7085.902,0.1033,-0.6274,0.7856,34.0576,-35.3394,-29.7241
7090.021,0.1045,-0.6284,0.7819,34.2407,-35.3394,-29.7241
7094.039,0.105,-0.6269,0.7778,34.1797,-35.5835,-29.6021
7099.622,0.1055,-0.621,0.7802,34.0576,-35.5835,-29.541
7102.408,0.1063,-0.6127,0.789,34.0576,-35.6445,-29.541
7105.914,0.1129,-0.6135,0.7968,34.1797,-35.6445,-29.7852
7109.959,0.1219,-0.6105,0.8063,34.0576,-35.4004,-29.9683
7113.871,0.1221,-0.6235,0.8081,33.2031,-35.2173,-29.9683
7117.94,0.1219,-0.6269,0.7998,32.8369,-35.0342,-29.6021
7121.918,0.118,-0.6298,0.7973,32.7759,-35.0342,-29.4189
7125.908,0.1116,-0.6298,0.7941,32.6538,-34.4238,-28.9917
7130.994,0.1102,-0.6291,0.7956,32.7148,-34.4238,-28.6865
7134.034,0.1109,-0.6293,0.7949,32.4097,-34.4238,-28.3813
7137.96,0.1129,-0.633,0.7993,32.1655,-34.5459,-28.3813
7141.92,0.1131,-0.634,0.7976,32.2266,-34.9121,-28.3813
7145.992,0.1119,-0.6371,0.7941,32.1655,-35.4004,-28.2593
7149.874,0.1114,-0.6396,0.7922,31.9824,-35.5835,-28.0151
7153.969,0.1094,-0.6381,0.788,32.2876,-35.8276,-27.6489
7157.895,0.1102,-0.6381,0.7856,32.8979,-35.6445,-27.4658
7163.803,0.1082,-0.6323,0.7841,32.5928,-35.8276,-27.4048
7166.907,0.1109,-0.6296,0.7773,33.02,-35.8276,-27.5269
7169.916,0.1092,-0.6193,0.7761,32.8369,-35.7056,-27.3438
7173.883,0.1102,-0.6166,0.7768,33.0811,-35.4004,-27.3438
7177.993,0.1107,-0.6091,0.7797,33.02,-34.8511,-27.2827
7181.92,0.116,-0.6083,0.7836,32.7148,-34.3018,-27.4048
7185.954,0.116,-0.6074,0.7802,32.5928,-33.8745,-27.5269
7189.996,0.1136,-0.6161,0.7839,32.4097,-33.3252,-27.5879
7194.985,0.1099,-0.6147,0.7885,32.3486,-33.0811,-27.6489
7198.214,0.1097,-0.6201,0.7934,31.9824,-32.7148,-27.5879
7201.802,0.1102,-0.6232,0.7978,31.3721,-32.8369,-27.6489
7206.53,0.1053,-0.6296,0.8024,31.25,-32.8369,-27.832
7210.193,0.1063,-0.6301,0.801,31.6162,-32.8369,-27.9541
7213.889,0.1009,-0.6354,0.7985,31.189,-33.02,-27.9541
7217.92,0.0962,-0.6389,0.7941,31.25,-33.3252,-28.1372
7221.791,0.0987,-0.6381,0.7929,31.1279,-33.3862,-28.1982
7227.18,0.0931,-0.6418,0.7878,31.7993,-33.6304,-28.3203
7230.272,0.0943,-0.6384,0.7832,31.9824,-33.6304,-28.2593
7233.842,0.0899,-0.6359,0.7814,31.5552,-33.8745,-28.4424
7237.892,0.0994,-0.6347,0.7851,31.7993,-33.9966,-28.6865
7241.819,0.1038,-0.6374,0.7829,31.5552,-34.1187,-28.7476
7245.81,0.1043,-0.6371,0.7805,31.8604,-34.1797,-28.8086
7249.909,0.105,-0.6403,0.7724,32.1655,-34.2407,-28.8696
7253.899,0.1045,-0.634,0.7656,32.5317,-34.1797,-28.5645
7259.296,0.1055,-0.6269,0.7658,33.3252,-33.6914,-28.2593
7262.761,0.1072,-0.6201,0.7739,33.5693,-33.8745,-28.3813
7265.793,0.1111,-0.6132,0.7834,33.3252,-33.4473,-28.5034
7269.912,0.1148,-0.6147,0.7912,32.7759,-33.4473,-28.5645
7273.929,0.1126,-0.6161,0.7929,32.7759,-33.2031,-28.5645
7277.744,0.1158,-0.6222,0.7917,32.5928,-32.959,-28.4424
7281.79,0.1136,-0.6257,0.7866,32.1655,-33.02,-28.0762
7285.774,0.1082,-0.6242,0.7871,32.6538,-32.8979,-27.9541
7291.351,0.1067,-0.6279,0.7871,32.7148,-32.959,-27.9541
7294.36,0.1043,-0.6303,0.7885,32.8979,-33.2642,-27.8931
7297.877,0.1019,-0.6323,0.7897,32.7148,-33.2031,-28.0151
7301.932,0.1019,-0.6362,0.7902,32.2266,-33.4473,-27.8931
7305.781,0.1043,-0.6342,0.7919,32.7148,-33.6304,-27.8931
7311.206,0.1011,-0.6374,0.7922,32.959,-34.1797,-27.8931
7314.177,0.1036,-0.6384,0.7866,33.0811,-34.4849,-27.771
7317.711,0.1019,-0.6423,0.7836,33.0811,-34.729,-27.5879
7323.374,0.1019,-0.6381,0.7795,33.6914,-34.9731,-27.4048
7326.459,0.107,-0.6337,0.7775,34.2407,-35.4004,-27.4658
7329.86,0.1053,-0.6315,0.7763,34.668,-35.5225,-27.3438
7333.81,0.1053,-0.6288,0.78,33.9966,-35.6445,-27.3438
7337.736,0.1067,-0.6225,0.7834,34.3628,-35.9497,-27.3438
7341.753,0.1082,-0.6249,0.7829,34.1797,-36.0718,-27.3438
7345.84,0.1124,-0.6249,0.7797,34.1797,-36.0107,-27.2827
7349.738,0.1082,-0.6254,0.781,34.3018,-35.8887,-27.2217
7355.957,0.1133,-0.6203,0.7858,34.3628,-35.6445,-27.0996
7358.96,0.1153,-0.6183,0.7871,34.3018,-35.2173,-27.0996
7361.984,0.1111,-0.6181,0.7944,34.6069,-35.1562,-27.2827
7365.667,0.1148,-0.6215,0.7956,34.1187,-35.0952,-27.4658
7369.797,0.1087,-0.6288,0.7905,33.9355,-34.6069,-27.5269
7373.813,0.1097,-0.6323,0.7878,33.8745,-34.3018,-27.4658
7377.836,0.1075,-0.6325,0.7883,33.8135,-34.3018,-27.4658
7381.65,0.1058,-0.6381,0.7888,33.9355,-34.2407,-27.5269
7387.557,0.1048,-0.6357,0.7939,34.3628,-33.8745,-27.6489
7390.478,0.1082,-0.6384,0.7917,34.1797,-33.3252,-27.5879
7393.676,0.1065,-0.6396,0.7951,34.0576,-33.02,-27.5269
7397.629,0.1002,-0.6398,0.7973,34.1797,-32.8979,-27.6489
7401.805,0.1002,-0.6435,0.7917,34.3628,-33.2642,-27.71
7405.716,0.096,-0.6472,0.7946,34.1187,-33.8135,-27.5879
7409.833,0.0984,-0.6457,0.7827,34.3018,-34.3628,-27.4658
7414.672,0.0997,-0.6379,0.7771,34.9121,-34.9731,-27.3438
7417.867,0.097,-0.6271,0.7771,34.9731,-35.0342,-27.2217
7422.82,0.1024,-0.6227,0.7756,34.6069,-35.4004,-27.0996
7425.801,0.1085,-0.6135,0.7795,34.79,-35.4614,-27.0996
7429.744,0.1107,-0.6161,0.7851,34.6069,-35.3394,-27.2217
7433.779,0.1109,-0.6157,0.7893,34.4849,-35.2783,-27.1606
7437.602,0.1107,-0.6208,0.7897,34.1797,-34.79,-27.1606
7441.757,0.1092,-0.622,0.7905,34.0576,-34.9121,-27.0996
7445.663,0.1067,-0.6218,0.7944,34.1797,-34.8511,-27.0996
7449.651,0.1045,-0.6249,0.7956,34.1187,-34.9121,-27.1606
7454.063,0.1033,-0.6276,0.7968,34.1797,-35.1562,-27.1606
7457.69,0.108,-0.6288,0.7973,34.4238,-35.7056,-27.2827
7461.684,0.1077,-0.6347,0.7954,34.1187,-35.9497,-27.4658
7465.624,0.108,-0.6347,0.7922,34.0576,-36.1938,-27.4048
7469.583,0.1043,-0.6393,0.7895,34.6069,-36.1938,-27.3438
7473.657,0.1011,-0.6359,0.7814,34.6069,-36.499,-27.0996
7477.773,0.0999,-0.6318,0.7756,34.668,-36.5601,-26.9775
7481.555,0.0982,-0.6266,0.7707,34.729,-36.438,-26.7334
7486.53,0.1048,-0.6188,0.7785,35.3394,-36.377,-26.6113
7489.782,0.1087,-0.6196,0.7844,35.0952,-36.2549,-26.8555
7493.698,0.1124,-0.6193,0.7919,34.729,-36.0107,-26.9165
7497.719,0.115,-0.622,0.7915,34.668,-35.9497,-26.9775
7501.545,0.108,-0.6227,0.7871,34.79,-35.8887,-26.9775
7505.583,0.1082,-0.6247,0.7846,34.668,-35.7056,-26.7944
7509.583,0.1067,-0.623,0.7858,34.3018,-35.8276,-26.7334
7514.501,0.1048,-0.6181,0.7915,34.3018,-35.7056,-26.7944
7520.154,0.1067,-0.6218,0.7956,34.4849,-35.8276,-26.9165
7523.212,0.1099,-0.6232,0.7934,34.1797,-35.5225,-26.9165
7526.226,0.1121,-0.6269,0.7922,33.6304,-35.4614,-26.9775
7529.655,0.1094,-0.6286,0.7927,33.5083,-35.0952,-26.9775
7533.687,0.1085,-0.6266,0.7937,33.6914,-35.0952,-27.0996
7537.653,0.1075,-0.6274,0.7944,33.6304,-34.79,-26.9775
7541.696,0.1021,-0.6274,0.7924,33.6914,-34.668,-27.0996
7545.684,0.1075,-0.6279,0.7929,33.3252,-34.729,-27.0386
7549.592,0.1094,-0.6279,0.7927,33.2031,-34.8511,-26.9775
7554.421,0.1116,-0.6296,0.7905,33.0811,-35.0342,-27.0386
7557.542,0.1089,-0.6257,0.7927,32.959,-35.0952,-26.9775
7561.629,0.107,-0.623,0.7978,33.0811,-35.1562,-26.9165
7565.51,0.1077,-0.6249,0.798,33.0811,-35.0342,-26.9165
7569.497,0.1133,-0.6259,0.7993,32.959,-34.79,-26.8555
7573.65,0.1119,-0.6313,0.7941,32.5928,-34.9731,-26.7944
7577.473,0.1077,-0.6286,0.7912,32.5317,-35.0952,-26.6724
7581.485,0.1045,-0.6301,0.7836,32.6538,-35.2173,-26.6724
7586.626,0.1077,-0.6313,0.7832,32.5928,-35.3394,-26.4893
7589.659,0.1031,-0.6237,0.7863,32.7759,-35.3394,-26.4282
7593.657,0.1033,-0.6262,0.7883,32.7759,-35.5225,-26.5503
7597.472,0.1089,-0.6257,0.7897,33.02,-35.7056,-26.6113
7601.486,0.1114,-0.6284,0.7907,32.8979,-35.7056,-26.6113
7605.648,0.1138,-0.6301,0.7878,32.7759,-35.5225,-26.6113
7609.613,0.1107,-0.6242,0.7844,32.8369,-35.2173,-26.6724
7613.485,0.1094,-0.6235,0.7805,32.5928,-35.1562,-26.4893
7620.977,0.1082,-0.6186,0.7824,32.7759,-34.9121,-26.4282
7625.553,0.1097,-0.6225,0.7902,32.8369,-34.3628,-26.7944
7629.566,0.1138,-0.623,0.7873,32.7148,-34.3628,-26.9165
7633.593,0.1141,-0.6276,0.7876,32.5928,-34.2407,-26.8555
7637.436,0.1136,-0.6293,0.7839,32.7759,-34.1797,-26.8555
7641.588,0.1072,-0.6274,0.7873,32.8369,-33.9355,-26.6724
7645.495,0.1072,-0.6271,0.7929,33.0811,-34.2407,-26.6724
7649.527,0.1053,-0.6293,0.7998,32.8979,-34.3628,-26.8555
7653.825,0.1067,-0.6293,0.8005,32.8979,-34.4849,-26.9165
7657.558,0.107,-0.6308,0.8034,32.3486,-34.6069,-26.8555
7661.442,0.106,-0.6349,0.7966,32.4097,-34.79,-26.7944
7665.579,0.1094,-0.6347,0.79,32.1655,-34.9731,-26.7334
7669.523,0.1053,-0.6318,0.7851,32.4097,-35.0952,-26.6113
7673.453,0.1045,-0.6284,0.7819,32.8369,-35.0952,-26.7334
7677.388,0.1053,-0.6286,0.7861,32.7148,-34.8511,-26.6724
7681.508,0.1104,-0.6286,0.789,32.8369,-34.79,-26.8555
7686.617,0.1107,-0.6288,0.7814,32.4097,-34.4238,-26.9165
7689.632,0.1065,-0.6323,0.78,32.7759,-34.2407,-26.9775
7693.444,0.1067,-0.6257,0.7761,32.8979,-34.1797,-26.8555
7697.389,0.0977,-0.6259,0.779,32.7148,-33.9355,-26.9775
7701.382,0.0999,-0.6249,0.7822,32.8979,-33.7524,-26.8555
7705.439,0.0999,-0.6235,0.7846,32.7148,-33.8135,-27.0996
7709.393,0.1048,-0.621,0.7854,32.7148,-33.5693,-27.0386
7713.537,0.1067,-0.6193,0.7885,33.02,-33.8135,-27.2217
7720.904,0.1107,-0.6218,0.7854,32.5928,-33.6914,-27.1606
7725.364,0.1102,-0.6232,0.7893,32.5928,-33.4473,-26.9165
7729.379,0.108,-0.6222,0.7902,32.4097,-33.5083,-27.0386
7733.481,0.1031,-0.6293,0.7966,32.5928,-33.5693,-26.9775
7737.38,0.1043,-0.6301,0.7998,31.9214,-33.8745,-26.9165
7741.433,0.1038,-0.6362,0.8007,32.1655,-34.3628,-27.0386
7745.382,0.1038,-0.6398,0.798,31.8604,-34.79,-26.9165
7750.713,0.1048,-0.6408,0.7949,31.7993,-35.0342,-26.7334
7753.505,0.105,-0.6418,0.7973,31.8604,-35.2173,-26.6113
7757.405,0.1028,-0.6379,0.7941,32.1655,-35.5835,-26.4893
7761.479,0.1072,-0.6408,0.7919,32.2876,-36.2549,-26.3672
7765.407,0.1058,-0.634,0.7905,31.8604,-36.6211,-26.4282
7769.342,0.1053,-0.6347,0.7854,32.5928,-36.5601,-26.3062
7773.498,0.1065,-0.6303,0.7822,32.2876,-36.6211,-26.1841
7777.493,0.1033,-0.6276,0.7768,32.4097,-36.499,-26.1841
7782.815,0.108,-0.6269,0.7775,32.2266,-36.377,-26.123
7785.809,0.108,-0.623,0.7783,32.5317,-36.1328,-26.1841
7789.386,0.1104,-0.6244,0.7876,32.4707,-35.8276,-26.3672
7793.305,0.1114,-0.6203,0.7834,32.7148,-35.5225,-26.4282
7797.298,0.1107,-0.6237,0.7846,32.3486,-34.9731,-26.6113
7801.295,0.1053,-0.624,0.7851,32.7148,-34.5459,-26.6724
7805.413,0.105,-0.6249,0.7873,32.4097,-34.3018,-26.6724
7809.433,0.1055,-0.6279,0.7902,32.0435,-34.1797,-26.6724
7815.419,0.1063,-0.6271,0.7895,31.9214,-33.8135,-26.7334
7818.394,0.1033,-0.633,0.7849,32.1045,-34.0576,-26.9165
7823.665,0.1026,-0.6352,0.7854,32.6538,-33.8745,-26.9165
7826.601,0.1004,-0.6332,0.7858,32.5928,-34.0576,-26.9165
7829.615,0.1043,-0.6332,0.7878,32.2876,-33.9355,-27.0386
7833.38,0.1045,-0.6337,0.7873,32.2266,-34.1797,-27.2827
7837.382,0.1002,-0.6325,0.7849,32.959,-34.2407,-27.2827
7841.382,0.1002,-0.6308,0.7854,32.8369,-34.1797,-27.2827
7847.019,0.1002,-0.6332,0.7854,32.6538,-34.3018,-27.2827
7849.955,0.1002,-0.6288,0.781,32.7148,-34.4849,-27.4048
7853.422,0.1014,-0.6252,0.7795,32.4707,-34.4849,-27.4048
7857.413,0.1019,-0.6264,0.7766,32.7759,-34.79,-27.2827
7861.295,0.1036,-0.6252,0.7792,32.7148,-34.9121,-27.2827
7865.364,0.1085,-0.6252,0.7822,33.02,-34.668,-27.3438
7869.381,0.1087,-0.6259,0.7858,33.2642,-34.729,-27.2827
7873.43,0.1087,-0.6303,0.7844,33.3252,-34.9121,-27.2827
7879.087,0.107,-0.6296,0.7839,33.2031,-34.729,-27.2217
7882.019,0.1077,-0.6325,0.7827,32.7759,-34.6069,-26.9775
7885.223,0.1031,-0.6335,0.7819,33.6304,-34.79,-26.8555
7889.349,0.1016,-0.6325,0.7854,33.3252,-34.729,-26.8555
7893.357,0.0941,-0.6347,0.7876,33.2642,-34.668,-26.8555
7897.356,0.1016,-0.6345,0.7907,33.4473,-34.9731,-26.7334
7901.362,0.1043,-0.6335,0.7919,33.2031,-35.5835,-26.7944
7905.286,0.1065,-0.6354,0.7893,33.6304,-35.7056,-26.6724
7909.29,0.1099,-0.6362,0.7873,33.7524,-35.9497,-26.5503
7914.01,0.1092,-0.6279,0.7854,33.6304,-36.0107,-26.5503
7917.695,0.1053,-0.6269,0.7888,33.9355,-36.1328,-26.5503
7921.349,0.1082,-0.6313,0.7924,33.3252,-36.377,-26.4282
7925.895,0.1121,-0.6259,0.7959,33.2642,-36.3159,-26.5503
7929.191,0.1111,-0.6303,0.7939,33.2031,-36.377,-26.5503
7933.206,0.1097,-0.6357,0.7917,33.0811,-36.377,-26.5503
7937.363,0.1102,-0.6345,0.7873,33.0811,-36.499,-26.6113
7941.29,0.1089,-0.6347,0.7834,32.8979,-36.377,-26.5503
7946.311,0.1038,-0.6308,0.7814,33.7524,-36.1938,-26.6113
7949.313,0.1024,-0.6327,0.7792,33.3862,-35.7666,-26.6113
7953.308,0.1053,-0.6271,0.7822,33.4473,-35.6445,-26.6724
7957.202,0.1092,-0.6279,0.7856,33.3862,-35.6445,-26.9775
7961.196,0.106,-0.6284,0.7822,32.8979,-35.2783,-27.0386
7965.29,0.1107,-0.6266,0.7797,33.1421,-34.729,-27.0996
7969.165,0.1065,-0.6269,0.7795,33.5083,-34.3018,-27.0386
7973.328,0.1067,-0.622,0.7834,33.1421,-33.7524,-27.1606
7978.445,0.1048,-0.6254,0.7876,32.959,-33.4473,-27.2217
7981.377,0.1041,-0.6284,0.7876,32.7759,-33.1421,-27.2217
7985.18,0.1067,-0.6305,0.7888,32.8369,-33.3862,-27.2217
7989.211,0.1043,-0.634,0.7822,33.1421,-33.5693,-27.3438
7993.156,0.1053,-0.6327,0.7834,33.0811,-33.8135,-27.3438
7997.169,0.1067,-0.6303,0.7829,33.5083,-33.8135,-27.3438
8001.226,0.1092,-0.6313,0.7846,33.4473,-33.6304,-27.2827
8005.141,0.1089,-0.6303,0.7866,33.6914,-33.8745,-27.3438
8010.318,0.1163,-0.633,0.7907,33.5083,-34.2407,-27.4048
8013.468,0.1114,-0.632,0.7849,33.2031,-34.4238,-27.3438
8017.186,0.1097,-0.6301,0.7766,33.6304,-34.2407,-27.1606
8021.182,0.1048,-0.6276,0.7783,33.8135,-33.9966,-26.9775
8025.134,0.1065,-0.6254,0.7795,34.1797,-33.8135,-26.7944
8029.427,0.1065,-0.6264,0.7849,33.7524,-33.6914,-26.8555
8033.149,0.105,-0.6254,0.7834,33.4473,-33.3252,-26.9775
8037.18,0.1094,-0.6271,0.7844,33.5693,-33.3252,-26.9165
8042.441,0.107,-0.6286,0.7897,33.7524,-33.2031,-26.9165
8045.904,0.1089,-0.6303,0.7915,33.4473,-33.02,-26.9775
8049.125,0.105,-0.6347,0.791,33.3862,-32.8979,-27.0386
8053.134,0.1043,-0.6371,0.7944,33.7524,-33.02,-27.0996
8057.155,0.1033,-0.6332,0.7954,33.5083,-33.0811,-27.2217
8061.056,0.1053,-0.6371,0.7966,32.7759,-33.1421,-27.2827
8065.055,0.1019,-0.6384,0.7949,32.7759,-33.2642,-27.5269
8069.149,0.1002,-0.6352,0.7939,32.6538,-33.5083,-27.6489
8074.136,0.0941,-0.6386,0.789,32.8369,-33.5693,-27.6489
8077.623,0.0923,-0.6357,0.7802,33.3252,-33.6914,-27.5879
8081.233,0.0938,-0.6359,0.7744,32.8979,-33.8135,-27.4658
8085.086,0.0962,-0.6313,0.7783,32.7148,-33.9966,-27.3438
8089.125,0.0965,-0.6308,0.7883,33.1421,-34.1797,-27.4658
8093.146,0.1014,-0.6313,0.7915,33.2031,-34.6069,-27.6489
8097.167,0.1058,-0.6305,0.7951,32.7148,-34.9121,-27.5269
8101.12,0.1053,-0.633,0.7922,33.0811,-35.0342,-27.4048
8106.632,0.1067,-0.634,0.7905,32.8369,-35.2783,-27.2827
8109.583,0.1075,-0.6335,0.7912,33.3862,-35.6445,-27.1606
8113.163,0.108,-0.6284,0.7885,32.8369,-35.6445,-26.8555
8117.178,0.1094,-0.6318,0.7912,32.5928,-35.9497,-26.7334
8121.213,0.1107,-0.6269,0.7871,33.02,-36.0107,-26.8555
8125.071,0.1126,-0.6296,0.7866,32.6538,-36.0718,-26.6724
8130.623,0.1097,-0.6254,0.7866,32.3486,-36.0107,-26.5503
8133.556,0.1075,-0.6303,0.7858,32.2266,-35.9497,-26.4282
8138.66,0.1026,-0.6293,0.7785,32.4707,-36.0107,-26.4893
8141.586,0.1031,-0.6303,0.7783,32.4707,-35.9497,-26.4282
8145.013,0.1028,-0.6296,0.78,32.4707,-35.8276,-26.3672
8148.985,0.1016,-0.6288,0.781,32.4707,-35.8276,-26.4893
8152.999,0.105,-0.632,0.7824,32.5317,-35.7056,-26.5503
8157.12,0.1097,-0.632,0.7854,32.7759,-35.5835,-26.7944
8161.107,0.1028,-0.6327,0.7854,32.4097,-35.5835,-26.9775
8165.129,0.1043,-0.6337,0.7883,32.4097,-35.2173,-27.0386
8170.327,0.1011,-0.634,0.7897,32.2876,-35.0342,-27.2827
8173.031,0.0975,-0.6347,0.7905,32.1045,-34.9731,-27.4658
8176.968,0.0921,-0.6379,0.7829,31.9214,-34.729,-27.6489
8181.142,0.0894,-0.6393,0.7788,32.3486,-34.79,-27.8931
8185.017,0.0894,-0.6347,0.7773,32.6538,-34.9731,-28.0762
8189.055,0.0916,-0.6332,0.7758,32.7759,-35.0952,-28.1982
8193.07,0.0989,-0.6313,0.7773,32.8979,-35.3394,-28.5034
8197.015,0.1009,-0.632,0.781,32.8369,-35.1562,-28.8086
8203.109,0.1077,-0.6303,0.7814,32.959,-35.0342,-28.9307
8206.171,0.106,-0.6327,0.7824,33.0811,-35.2173,-29.0527
8209.189,0.1067,-0.6308,0.7829,33.2642,-35.2783,-29.2358
8213.006,0.1077,-0.6266,0.7807,33.3252,-35.2173,-29.2969
8217.017,0.1058,-0.624,0.7773,33.1421,-34.729,-29.3579
8221.032,0.1053,-0.6237,0.7775,33.5083,-34.4849,-29.48
8225.035,0.1048,-0.624,0.7761,33.1421,-34.4238,-29.6021
8229.134,0.1067,-0.6218,0.7763,33.0811,-34.0576,-29.7241
8233.225,0.1016,-0.6237,0.778,33.02,-34.1187,-29.8462
8238.298,0.106,-0.6276,0.7834,33.3862,-34.1187,-30.0903
8241.536,0.1089,-0.6266,0.7871,33.02,-34.1187,-30.3345
8245.111,0.1126,-0.6308,0.7929,32.959,-34.1797,-30.3345
8248.896,0.1099,-0.6308,0.7961,32.8979,-33.9966,-30.5176
8253.021,0.1102,-0.6381,0.7971,32.2876,-34.1797,-30.7007
8256.91,0.1094,-0.6369,0.7944,32.5928,-33.9355,-30.7007
8260.963,0.1063,-0.6362,0.7905,32.4097,-34.3018,-30.5786
8264.898,0.1048,-0.6332,0.7885,32.7759,-34.4238,-30.5786
8269.404,0.1004,-0.6367,0.7888,32.7148,-34.729,-30.5786
8272.908,0.1026,-0.6315,0.7907,32.1045,-34.9731,-30.7007
8276.985,0.1087,-0.6279,0.7954,32.4097,-35.4614,-30.8228
8280.981,0.1111,-0.6296,0.7946,32.1655,-35.5835,-30.7007
8285.005,0.1143,-0.6327,0.79,31.7993,-35.4004,-30.5786
8289.038,0.116,-0.634,0.7812,31.4331,-34.9731,-30.3955
8292.995,0.1158,-0.6347,0.7766,31.7383,-34.4849,-30.2124
8296.965,0.1168,-0.6293,0.7731,31.5552,-34.0576,-30.0903
8301.963,0.1109,-0.6281,0.7795,31.9824,-33.5083,-30.0293
8305.085,0.1136,-0.6274,0.7839,31.6162,-33.3252,-30.0293
8309.018,0.1102,-0.6284,0.7893,31.4941,-33.3252,-30.1514
8313.013,0.1133,-0.6266,0.7895,31.7383,-33.3252,-30.0903
8316.942,0.1087,-0.6284,0.7902,31.7383,-33.5083,-30.1514
8320.847,0.1063,-0.6347,0.7873,31.8604,-33.5693,-30.1514
8325.003,0.1065,-0.634,0.7812,31.6772,-33.7524,-30.0903
8328.896,0.1099,-0.632,0.7749,31.3721,-33.8745,-30.0293
8336.083,0.1104,-0.6313,0.7736,31.9824,-33.6304,-30.0293
8339.162,0.1065,-0.6249,0.7722,31.8604,-33.4473,-29.9683
8342.159,0.108,-0.6291,0.779,32.0435,-33.3252,-30.2124
8345.102,0.1072,-0.6313,0.7802,31.6162,-33.0811,-30.3955
8348.896,0.1033,-0.6296,0.778,31.7383,-33.02,-30.3955
8352.843,0.1063,-0.6286,0.7827,31.7993,-32.959,-30.3345
8356.896,0.1028,-0.633,0.78,31.6772,-32.7148,-30.2124
8360.931,0.1031,-0.6332,0.7846,31.5552,-33.2642,-30.2124
8364.956,0.1028,-0.633,0.7885,32.0435,-33.6304,-30.2124
8369.317,0.1085,-0.6323,0.7893,31.9214,-34.0576,-30.2734
8372.859,0.1126,-0.6345,0.7888,31.4941,-34.1187,-30.2124
8376.956,0.117,-0.633,0.7888,31.6772,-34.3628,-30.1514
8380.999,0.119,-0.6337,0.7893,31.3721,-34.4238,-30.0293
8384.904,0.1177,-0.6342,0.7907,31.4331,-34.5459,-29.8462
8388.919,0.1143,-0.6371,0.7905,31.4331,-34.4849,-29.7241
8392.97,0.1094,-0.6389,0.7844,31.0669,-34.729,-29.6631
8396.806,0.1087,-0.642,0.7805,31.189,-34.729,-29.6631
8402.012,0.1111,-0.6384,0.78,31.6772,-35.2173,-29.6631
8405.024,0.1094,-0.6379,0.7827,31.7383,-35.1562,-29.6021
8408.896,0.1097,-0.6371,0.7797,31.8604,-35.0952,-29.6631
8412.932,0.1148,-0.632,0.7805,31.6162,-35.4004,-29.7852
8416.955,0.1131,-0.6298,0.781,31.3721,-35.0342,-29.6631
8420.774,0.1131,-0.631,0.7827,31.7383,-35.0952,-29.6021
8424.788,0.1121,-0.6276,0.7812,31.4331,-35.0342,-29.541
8428.814,0.1087,-0.6313,0.7819,31.4941,-35.0342,-29.6021
8435.742,0.106,-0.6303,0.7807,31.7383,-35.4004,-29.8462
8439.289,0.1087,-0.6342,0.7832,31.6162,-35.5225,-29.8462
8442.213,0.1158,-0.6323,0.7807,31.7383,-35.9497,-30.0293
8445.225,0.1138,-0.6354,0.779,31.25,-36.1938,-29.9683
8448.781,0.118,-0.6401,0.7749,31.6772,-36.3159,-30.0293
8452.797,0.1158,-0.6367,0.7736,31.7993,-36.0107,-29.9683
8456.921,0.1177,-0.6301,0.7749,32.1655,-35.7666,-30.0903
8460.743,0.1192,-0.6376,0.7819,32.2266,-35.5835,-30.3345
8465.804,0.1185,-0.6369,0.7844,31.9214,-35.4004,-30.7007
8468.937,0.1163,-0.6389,0.7854,32.4097,-35.3394,-30.9448
8472.791,0.1163,-0.6393,0.7824,32.2876,-35.2783,-31.189
8476.722,0.1163,-0.6389,0.7795,32.3486,-34.9121,-31.189
8480.809,0.1131,-0.6413,0.7736,32.2876,-34.2407,-31.0669
8484.708,0.1131,-0.6408,0.767,32.2876,-33.6914,-30.9448
8488.811,0.107,-0.6376,0.7692,32.5317,-33.2031,-31.1279
8492.807,0.1043,-0.6345,0.778,32.8979,-32.959,-31.311
8497.955,0.1026,-0.6379,0.7844,32.8979,-32.8369,-31.4941
8500.898,0.1063,-0.6396,0.7858,32.2876,-32.5928,-31.4941
8504.849,0.1072,-0.6445,0.7849,32.6538,-33.2642,-31.4331
8508.836,0.1102,-0.6437,0.7812,32.5928,-33.8745,-31.311
8512.837,0.1121,-0.6415,0.7854,32.959,-34.1187,-31.0669
8516.86,0.117,-0.6376,0.7883,33.02,-34.5459,-31.0059
8520.688,0.1187,-0.6367,0.7917,33.0811,-35.0342,-30.9448
8524.687,0.1231,-0.6354,0.7929,32.4097,-35.2783,-30.8838
8530.0,0.1221,-0.6357,0.7876,32.7759,-35.4004,-30.8838
8533.212,0.1248,-0.6345,0.7768,32.8369,-35.8276,-30.6396
8538.07,0.118,-0.6303,0.7727,32.5928,-35.9497,-30.5176
8541.704,0.119,-0.6252,0.7714,33.0811,-36.6211,-30.3955
8544.712,0.1194,-0.624,0.7727,33.1421,-36.6821,-30.3345
8548.721,0.1192,-0.6213,0.7814,32.8979,-36.8042,-30.2734
8552.774,0.1253,-0.624,0.7893,32.4097,-36.9263,-30.2124
8556.659,0.1309,-0.6252,0.7924,32.4707,-36.9263,-30.3345
8562.023,0.1292,-0.633,0.7924,31.9214,-37.0483,-30.3955
8564.973,0.1277,-0.6408,0.7929,32.2266,-37.1094,-30.2734
8568.784,0.1224,-0.6452,0.7917,32.2876,-37.4756,-30.2124
8572.687,0.1204,-0.6457,0.7876,31.9214,-37.7197,-29.9072
8576.69,0.1148,-0.6472,0.7849,32.1655,-38.208,-29.9072
8580.774,0.1153,-0.6432,0.7866,32.2876,-38.6353,-29.9683
8584.71,0.1153,-0.6423,0.7878,32.2876,-38.8794,-30.0903
8588.709,0.1168,-0.6445,0.7956,31.9824,-39.4897,-30.2734
8594.109,0.1107,-0.6454,0.8012,31.7383,-40.1611,-30.8228
8597.091,0.1116,-0.6493,0.8027,31.25,-40.7104,-31.189
8600.716,0.1124,-0.6481,0.8046,30.7007,-40.9546,-31.5552
8604.716,0.1155,-0.6474,0.8076,30.7007,-41.2598,-31.9214
8608.709,0.115,-0.6523,0.8188,30.6396,-41.748,-32.3486
8612.729,0.1165,-0.6601,0.8244,29.9072,-42.1143,-32.8979
