recv_ts,src,raw_ts,seq,acc_x,acc_y,acc_z,gyro_x,gyro_y,gyro_z
1778683089.243024,10.90.50.196,2065585941,513519,0.7773,0.4618,0.6392,58.8379,-61.2793,91.1255
1778683089.243024,10.90.50.196,2065591404,513520,0.697,0.5094,0.5862,52.7344,-64.3921,95.7031
1778683089.243024,10.90.50.196,2065594442,513521,0.6509,0.5319,0.5567,42.9688,-70.6787,97.8394
1778683089.243024,10.90.50.196,2065597964,513522,0.6167,0.5268,0.5479,25.9399,-78.7964,99.9756
1778683089.256101,10.90.50.196,2065601941,513523,0.645,0.5046,0.5401,7.8125,-90.21,103.4546
1778683089.256101,10.90.50.196,2065605947,513524,0.644,0.5043,0.5547,-10.8643,-97.229,101.3794
1778683089.256101,10.90.50.196,2065610829,513525,0.6267,0.5016,0.6062,-17.0898,-106.1401,90.6982
1778683089.256101,10.90.50.196,2065614459,513526,0.6975,0.5131,0.6145,-15.0757,-118.8965,74.4629
1778683089.272672,10.90.50.196,2065618055,513527,0.6853,0.4814,0.7002,-20.0195,-122.2534,63.1714
1778683089.272672,10.90.50.196,2065623527,513528,0.6411,0.4455,0.8094,-35.5225,-120.7275,60.3027
1778683089.272672,10.90.50.196,2065626584,513529,0.613,0.3942,0.8865,-52.2461,-118.9575,59.2651
1778683089.272672,10.90.50.196,2065629917,513530,0.5888,0.339,0.9422,-64.27,-116.0889,56.0303
1778683089.289029,10.90.50.196,2065634044,513531,0.5332,0.2707,1.0093,-71.4111,-111.145,53.2837
1778683089.289029,10.90.50.196,2065637988,513532,0.435,0.1855,1.0965,-77.3926,-102.356,50.9033
1778683089.312348,10.90.50.196,2065641988,513533,0.3642,0.1037,1.1497,-81.7261,-96.0693,48.0957
1778683089.312348,10.90.50.196,2065646093,513534,0.3281,0.0375,1.177,-82.0923,-91.5527,46.0205
1778683089.312348,10.90.50.196,2065650121,513535,0.3157,-0.0169,1.1846,-79.9561,-86.6699,44.7388
1778683089.314346,10.90.50.196,2065655437,513536,0.3052,-0.0553,1.208,-74.8901,-79.9561,43.9453
1778683089.31533,10.90.50.196,2065658715,513537,0.2788,-0.087,1.2461,-70.6177,-68.9087,44.6777
1778683089.317409,10.90.50.196,2065662051,513538,0.2649,-0.1202,1.2781,-65.979,-59.5093,47.0581
1778683089.322158,10.90.50.196,2065666190,513539,0.3699,-0.1544,1.2478,-64.6362,-62.3169,50.7812
1778683089.332137,10.90.50.196,2065670077,513540,0.591,-0.1785,1.208,-65.1855,-74.2188,56.3354
1778683089.332137,10.90.50.196,2065674140,513541,0.7114,-0.193,1.2478,-51.5137,-63.0493,60.6079
1778683089.332137,10.90.50.196,2065678150,513542,0.6894,-0.1348,1.3592,-30.5176,-38.3301,62.5
1778683089.338916,10.90.50.196,2065682110,513543,0.5993,-0.002,1.471,-13.6719,-12.4512,65.0024
1778683089.344168,10.90.50.196,2065687936,513544,0.5068,0.1728,1.5054,-3.7231,9.5825,66.4062
1778683089.344168,10.90.50.196,2065691496,513545,0.4123,0.3354,1.5132,-3.9673,25.3906,67.3218
1778683089.344168,10.90.50.196,2065694434,513546,0.3279,0.4528,1.4951,-14.7095,37.5366,68.0542
1778683089.355877,10.90.50.196,2065698223,513547,0.2431,0.5304,1.4431,-31.3721,48.5229,67.3218
1778683089.36253,10.90.50.196,2065702245,513548,0.196,0.5712,1.3531,-45.4102,57.373,62.439
1778683089.365065,10.90.50.196,2065706242,513549,0.1511,0.578,1.2334,-58.1665,64.209,55.0537
1778683089.372179,10.90.50.196,2065710195,513550,0.1091,0.5819,1.105,-67.0166,70.0684,46.4478
1778683089.372179,10.90.50.196,2065715087,513551,0.0766,0.5544,1.0,-72.7539,72.6929,35.7056
1778683089.372179,10.90.50.196,2065720492,513552,0.0769,0.5124,0.9241,-76.0498,72.3877,26.6113
1778683089.382829,10.90.50.196,2065723731,513553,0.0774,0.4633,0.8889,-82.5806,69.9463,24.1089
1778683089.383837,10.90.50.196,2065726802,513554,0.1225,0.4225,0.8604,-89.1724,65.7349,23.4375
1778683089.38801,10.90.50.196,2065730319,513555,0.1821,0.3937,0.846,-87.6465,62.2559,21.2402
1778683089.388794,10.90.50.196,2065734338,513556,0.2514,0.4008,0.8511,-82.4585,60.73,17.2729
1778683089.388794,10.90.50.196,2065738308,513557,0.3005,0.4262,0.8794,-78.125,62.2559,13.4888
1778683089.414584,10.90.50.196,2065742316,513558,0.332,0.4604,0.9109,-76.2939,63.4766,11.3525
1778683089.414584,10.90.50.196,2065746392,513559,0.3738,0.4972,0.9229,-76.7212,63.1714,9.3994
1778683089.414584,10.90.50.196,2065751678,513560,0.4302,0.5287,0.9019,-78.6743,61.8896,7.3853
1778683089.414584,10.90.50.196,2065754359,513561,0.4885,0.5544,0.8526,-80.9326,62.3779,5.127
1778683089.415625,10.90.50.196,2065758270,513562,0.5268,0.5785,0.8047,-84.1064,64.0869,2.9907
1778683089.421338,10.90.50.196,2065762461,513563,0.542,0.5807,0.7605,-88.3789,67.9321,1.0376
1778683089.422439,10.90.50.196,2065766401,513564,0.5454,0.5595,0.7154,-91.5527,71.228,-0.5493
1778683089.429862,10.90.50.196,2065770338,513565,0.5488,0.5312,0.6526,-94.6655,72.6318,-0.7324
1778683089.429862,10.90.50.196,2065774442,513566,0.5627,0.5058,0.584,-96.3135,73.2422,0.4883
1778683089.429862,10.90.50.196,2065778486,513567,0.5576,0.4819,0.5196,-96.8018,72.998,2.9297
1778683089.439429,10.90.50.196,2065784141,513568,0.5893,0.4469,0.4424,-93.9331,69.9463,5.6152
1778683089.444464,10.90.50.196,2065787291,513569,0.6308,0.4279,0.3467,-89.5996,66.1621,9.1553
1778683089.44684,10.90.50.196,2065790402,513570,0.6741,0.4198,0.2771,-84.1675,61.5845,13.4888
1778683089.448804,10.90.50.196,2065794361,513571,0.7329,0.3869,0.2212,-77.6367,55.8472,16.6626
1778683089.455192,10.90.50.196,2065798539,513572,0.832,0.3376,0.188,-71.228,46.1426,19.7144
1778683089.458481,10.90.50.196,2065802523,513573,0.9636,0.2778,0.1763,-61.8286,35.5225,22.3999
1778683089.464966,10.90.50.196,2065806538,513574,1.1101,0.2113,0.1883,-52.5513,25.0854,24.9023
1778683089.467139,10.90.50.196,2065810463,513575,1.2378,0.1664,0.211,-38.9404,16.4185,27.771
1778683089.472526,10.90.50.196,2065817719,513576,1.3755,0.1532,0.2527,-22.583,10.376,30.3345
1778683089.472526,10.90.50.196,2065820805,513577,1.4885,0.1764,0.2923,-4.5776,11.2915,33.3862
1778683089.472526,10.90.50.196,2065823800,513578,1.5561,0.2389,0.3399,9.9487,18.4937,38.0859
1778683089.472526,10.90.50.196,2065826810,513579,1.4521,0.1791,0.4588,21.0571,33.4473,43.335
1778683089.488019,10.90.50.196,2065830618,513580,1.2251,0.0487,0.5232,0.1831,29.0527,41.2598
1778683089.489613,10.90.50.196,2065834654,513581,0.9433,0.0749,0.5659,-48.4009,28.3203,59.4482
1778683089.489613,10.90.50.196,2065838503,513582,1.4026,0.2768,0.012,21.1792,-37.1704,48.9502
1778683089.489613,10.90.50.196,2065842499,513583,1.4448,0.2113,-0.1367,73.1201,-38.208,24.5972
1778683089.518117,10.90.50.196,2065846523,513584,1.0986,0.2177,-0.1819,25.1465,17.6392,42.9077
1778683089.522434,10.90.50.196,2065850873,513585,0.9321,0.256,-0.3584,2.0752,46.1426,55.603
1778683089.522434,10.90.50.196,2065854578,513586,0.9382,0.2062,-0.4997,26.2451,27.6489,43.0908
1778683089.522434,10.90.50.196,2065858668,513587,1.0337,0.1867,-0.6338,38.6353,-13.9771,39.0625
1778683089.522434,10.90.50.196,2065862550,513588,1.1921,0.1755,-0.802,27.2827,-49.8047,42.3584
1778683089.522434,10.90.50.196,2065866667,513589,1.3249,0.1442,-0.9292,21.3013,-66.8945,44.1284
1778683089.543198,10.90.50.196,2065870672,513590,1.4316,0.1259,-1.0029,30.3955,-69.0308,40.7715
1778683089.543198,10.90.50.196,2065874580,513591,1.5002,0.111,-1.0351,45.5933,-65.4907,35.4614
1778683089.543198,10.90.50.196,2065878734,513592,1.4011,0.0712,-0.999,56.5186,-59.4482,31.5552
1778683089.543198,10.90.50.196,2065882860,513593,1.3879,0.0592,-0.9365,61.3403,-62.3169,32.7148
1778683089.544556,10.90.50.196,2065886624,513594,1.3193,0.0182,-0.865,66.8945,-74.8291,31.0059
1778683089.544556,10.90.50.196,2065890697,513595,0.8515,0.0868,-0.5305,84.8389,-66.1011,32.1655
1778683089.544556,10.90.50.196,2065894818,513596,0.3391,0.1681,-0.0356,109.8022,-7.5073,39.6729
1778683089.55564,10.90.50.196,2065898730,513597,0.2029,0.2126,0.0891,110.5957,19.8364,52.2461
1778683089.55564,10.90.50.196,2065902777,513598,0.166,0.2734,0.1927,106.1401,-9.2773,72.2656
1778683089.564391,10.90.50.196,2065906803,513599,0.2214,0.3405,0.4292,121.521,-66.1621,83.252
1778683089.566481,10.90.50.196,2065910856,513600,0.2444,0.4311,0.7693,160.4614,-100.3418,83.5571
1778683089.573016,10.90.50.196,2065915448,513601,0.3127,0.6474,0.979,200.1343,-117.6758,87.1582
1778683089.577066,10.90.50.196,2065920546,513602,0.4465,0.8869,1.126,225.5249,-144.7754,107.8491
1778683089.579535,10.90.50.196,2065923536,513603,0.6526,1.1864,1.1927,240.6006,-148.6206,127.3804
1778683089.581688,10.90.50.196,2065926758,513604,0.7886,1.5722,1.1804,267.5781,-104.6753,143.4937
1778683089.587862,10.90.50.196,2065930910,513605,0.9399,2.0929,1.157,303.5278,-48.5229,159.9731
1778683089.58894,10.90.50.196,2065934932,513606,0.7954,2.4076,1.0003,283.9355,8.4839,171.814
1778683089.58894,10.90.50.196,2065938891,513607,0.4963,2.3332,0.7383,189.6362,26.8555,187.5
1778683089.614645,10.90.50.196,2065942897,513608,0.3608,2.0492,0.4578,65.7349,22.7661,200.9888
1778683089.614645,10.90.50.196,2065947440,513609,0.393,1.7829,0.2054,-46.3867,-10.498,206.543
1778683089.614645,10.90.50.196,2065950939,513610,0.5974,1.2297,0.0279,-107.7271,-61.8896,180.6641
1778683089.614645,10.90.50.196,2065954828,513611,0.7646,0.7792,0.0708,-135.0708,-112.6099,157.8369
1778683089.614645,10.90.50.196,2065958939,513612,0.8012,0.4662,0.274,-147.3389,-136.1694,143.1885
1778683089.622204,10.90.50.196,2065962883,513613,0.8467,0.3329,0.4153,-149.4751,-134.3384,110.0464
1778683089.622204,10.90.50.196,2065966861,513614,0.9678,0.1813,0.5591,-113.3423,-144.3481,65.7959
1778683089.627837,10.90.50.196,2065971015,513615,0.9958,0.0641,0.7832,-71.7773,-153.9917,37.1094
1778683089.63054,10.90.50.196,2065974992,513616,0.9375,-0.0047,0.9187,-58.8989,-142.5781,36.438
1778683089.642188,10.90.50.196,2065979933,513617,0.7795,-0.0135,0.9712,-49.9878,-123.4741,47.9736
1778683089.642188,10.90.50.196,2065983074,513618,0.6684,-0.0081,0.908,-22.522,-105.6519,55.7251
1778683089.642188,10.90.50.196,2065986896,513619,0.6467,0.0417,0.7901,7.6294,-90.0879,69.458
1778683089.642188,10.90.50.196,2065991005,513620,0.6262,0.2008,0.6785,19.2871,-76.9043,89.4165
1778683089.651133,10.90.50.196,2065995052,513621,0.6277,0.2817,0.5806,26.3672,-68.4814,96.9849
1778683089.65572,10.90.50.196,2065999099,513622,0.6535,0.3417,0.5034,32.1655,-64.209,102.2949
1778683089.656443,10.90.50.196,2066003112,513623,0.6816,0.3551,0.4859,30.4565,-66.8335,104.6143
1778683089.663799,10.90.50.196,2066007058,513624,0.7097,0.3573,0.5108,26.3672,-74.0356,105.957
1778683089.666313,10.90.50.196,2066011994,513625,0.7241,0.3673,0.5452,21.8506,-80.2002,105.5908
1778683089.672504,10.90.50.196,2066015356,513626,0.7456,0.3764,0.576,19.165,-86.1816,102.1729
1778683089.677655,10.90.50.196,2066020250,513627,0.7539,0.3786,0.607,17.6392,-90.6982,98.6938
1778683089.679986,10.90.50.196,2066023761,513628,0.7744,0.3781,0.6187,17.9443,-93.0786,96.5576
1778683089.681005,10.90.50.196,2066027134,513629,1.0,0.4054,0.5354,8.8501,-105.7739,94.9097
1778683089.68835,10.90.50.196,2066031138,513630,1.1809,0.4042,0.6353,-23.9868,-142.8833,100.2197
1778683089.691706,10.90.50.196,2066035201,513631,1.3127,0.3818,0.7376,-10.3149,-135.437,95.5811
1778683089.691706,10.90.50.196,2066039138,513632,1.187,0.4394,1.0196,15.2588,-80.8716,81.9702
1778683089.691706,10.90.50.196,2066044071,513633,0.7961,0.5036,1.1111,12.8174,-29.9072,76.6602
1778683089.722397,10.90.50.196,2066047111,513634,0.6445,0.5768,0.8738,11.7188,-31.4941,75.5615
1778683089.722397,10.90.50.196,2066051115,513635,0.8462,0.6379,0.5694,5.249,-48.0957,74.9512
1778683089.722397,10.90.50.196,2066055116,513636,0.8205,0.5556,0.4502,-1.4648,-41.687,75.1343
1778683089.722397,10.90.50.196,2066059220,513637,0.7168,0.4469,0.4446,-6.5308,-25.2075,76.6602
1778683089.723077,10.90.50.196,2066063088,513638,0.5351,0.3586,0.4839,-14.0991,-15.4419,79.3457
1778683089.723077,10.90.50.196,2066067137,513639,0.4817,0.3351,0.4739,-13.3057,-26.062,80.3223
1778683089.727913,10.90.50.196,2066071250,513640,0.5622,0.3786,0.4082,-8.3618,-40.5273,78.5522
1778683089.731802,10.90.50.196,2066076339,513641,0.6391,0.4511,0.3687,3.418,-49.8657,71.0449
1778683089.73503,10.90.50.196,2066079393,513642,0.626,0.4762,0.4141,14.8926,-49.9878,62.0728
1778683089.739034,10.90.50.196,2066083190,513643,0.5903,0.4626,0.4993,12.3901,-51.3916,60.9131
1778683089.739034,10.90.50.196,2066087224,513644,0.6081,0.4347,0.5611,4.6387,-58.4106,62.3169
1778683089.748812,10.90.50.196,2066091201,513645,0.6743,0.4306,0.5799,1.9531,-68.4204,63.7207
1778683089.751751,10.90.50.196,2066095221,513646,0.7485,0.4289,0.5923,0.7324,-69.6411,63.5376
1778683089.755571,10.90.50.196,2066099223,513647,0.7898,0.434,0.6162,0.5493,-64.8804,61.4624
1778683089.760118,10.90.50.196,2066103239,513648,0.7077,0.4228,0.6748,2.3193,-55.8472,58.7158
1778683089.764099,10.90.50.196,2066108319,513649,0.6196,0.4069,0.6951,0.7935,-55.542,58.4106
1778683089.765245,10.90.50.196,2066111347,513650,0.678,0.4289,0.648,-3.7842,-61.1572,59.082
1778683089.772453,10.90.50.196,2066115387,513651,0.7138,0.3957,0.5901,-5.5542,-61.2793,57.8003
1778683089.772453,10.90.50.196,2066119247,513652,0.698,0.3708,0.5672,-8.1177,-56.6406,58.7769
1778683089.780984,10.90.50.196,2066124580,513653,0.6384,0.3686,0.5733,-3.9673,-54.4434,58.1665
1778683089.785405,10.90.50.196,2066127782,513654,0.6565,0.3903,0.5716,0.1221,-55.6641,55.603
1778683089.789411,10.90.50.196,2066131287,513655,0.655,0.3925,0.5804,3.6621,-54.3213,52.9785
1778683089.789411,10.90.50.196,2066135435,513656,0.696,0.4167,0.5623,6.5308,-57.8613,51.6968
1778683089.797651,10.90.50.196,2066140352,513657,0.7136,0.4347,0.5652,8.3618,-57.9224,49.9268
1778683089.799745,10.90.50.196,2066143565,513658,0.6977,0.443,0.5777,8.606,-54.6875,47.7905
1778683089.822309,10.90.50.196,2066147392,513659,0.6853,0.4494,0.5891,6.4697,-53.772,45.2271
1778683089.822309,10.90.50.196,2066151502,513660,0.6809,0.4401,0.5999,4.0283,-52.6733,43.2739
1778683089.822309,10.90.50.196,2066155501,513661,0.6706,0.4267,0.6214,1.5869,-51.2695,41.8091
1778683089.822309,10.90.50.196,2066159403,513662,0.6553,0.4157,0.6253,-0.1221,-47.1802,38.5742
1778683089.822309,10.90.50.196,2066163464,513663,0.6535,0.4045,0.6226,-1.4648,-48.584,36.499
1778683089.822309,10.90.50.196,2066167540,513664,0.6462,0.3864,0.6136,-1.0986,-49.5605,34.8511
1778683089.822309,10.90.50.196,2066172925,513665,0.6538,0.3818,0.5938,0.9155,-48.8281,33.9355
1778683089.822309,10.90.50.196,2066176342,513666,0.6345,0.3698,0.5916,2.0142,-47.7295,35.2173
1778683089.836375,10.90.50.196,2066179588,513667,0.6584,0.3671,0.5576,2.9907,-48.7671,37.4146
1778683089.83954,10.90.50.196,2066183599,513668,0.6672,0.3747,0.5291,5.6152,-49.6826,39.4897
1778683089.83954,10.90.50.196,2066187619,513669,0.6599,0.3854,0.5293,10.2539,-48.8281,40.5273
1778683089.849328,10.90.50.196,2066191519,513670,0.6445,0.4111,0.5288,13.5498,-46.0815,40.7104
1778683089.851871,10.90.50.196,2066195563,513671,0.6755,0.4406,0.5283,15.1367,-50.4761,42.1753
1778683089.855697,10.90.50.196,2066199579,513672,0.666,0.4518,0.5447,15.5029,-51.0254,42.7856
1778683089.855697,10.90.50.196,2066204711,513673,0.6562,0.4638,0.5533,14.8926,-51.0254,42.9688
1778683089.864066,10.90.50.196,2066207789,513674,0.6911,0.4877,0.5357,13.5498,-51.6357,42.9688
1778683089.86739,10.90.50.196,2066211509,513675,0.6968,0.4765,0.5537,12.7563,-53.2227,42.7246
1778683089.872408,10.90.50.196,2066215514,513676,0.6992,0.4784,0.5596,13.1226,-51.6968,42.4194
1778683089.876968,10.90.50.196,2066219611,513677,0.6963,0.484,0.5569,13.4277,-48.9502,42.4194
1778683089.881027,10.90.50.196,2066223547,513678,0.695,0.4782,0.5476,12.5732,-47.4854,42.4805
1778683089.881027,10.90.50.196,2066227672,513679,0.6843,0.4748,0.5342,10.2539,-47.4854,44.8608
1778683089.888088,10.90.50.196,2066231563,513680,0.6504,0.4623,0.5276,8.3618,-45.5933,47.0581
1778683089.899488,10.90.50.196,2066236866,513681,0.6477,0.467,0.521,6.4697,-46.6309,48.8281
1778683089.913491,10.90.50.196,2066239907,513682,0.6574,0.4692,0.5108,5.9204,-45.7764,50.4761
1778683089.921503,10.90.50.196,2066243607,513683,0.6528,0.4804,0.5161,6.1646,-42.8467,51.8188
1778683089.921503,10.90.50.196,2066247776,513684,0.6487,0.4765,0.5269,4.2114,-44.2505,52.6123
1778683089.921503,10.90.50.196,2066251662,513685,0.6545,0.4711,0.522,1.6479,-45.8984,53.2837
1778683089.922709,10.90.50.196,2066255783,513686,0.6604,0.4709,0.513,1.8311,-47.4243,53.6499
1778683089.922709,10.90.50.196,2066259667,513687,0.6448,0.4775,0.5115,1.4648,-46.4478,54.9316
1778683089.922709,10.90.50.196,2066263738,513688,0.6455,0.4816,0.5105,0.5493,-47.2412,55.2979
1778683089.93139,10.90.50.196,2066269244,513689,0.6457,0.4716,0.523,-0.1831,-47.9736,55.603
1778683089.932446,10.90.50.196,2066272347,513690,0.6452,0.4628,0.5413,-0.7324,-48.584,57.373
1778683089.936438,10.90.50.196,2066275741,513691,0.6775,0.4777,0.5347,-0.4272,-51.3916,57.251
1778683089.939146,10.90.50.196,2066279751,513692,0.6714,0.4877,0.5227,-0.2441,-50.5981,57.1899
1778683089.939146,10.90.50.196,2066283744,513693,0.6738,0.5011,0.52,-1.709,-49.8047,57.312
1778683089.944664,10.90.50.196,2066287741,513694,0.6386,0.4865,0.5352,-6.2866,-48.3398,58.6548
1778683089.94839,10.90.50.196,2066291743,513695,0.6538,0.4902,0.5139,-7.8125,-50.5371,57.7393
1778683089.949485,10.90.50.196,2066295754,513696,0.6521,0.506,0.5005,-7.1411,-50.9033,56.3354
1778683089.963821,10.90.50.196,2066301364,513697,0.635,0.5021,0.5034,-5.9814,-51.9409,54.3213
1778683089.963821,10.90.50.196,2066304153,513698,0.6252,0.4943,0.5108,-7.1411,-51.6968,52.3071
1778683089.963821,10.90.50.196,2066307758,513699,0.6384,0.4987,0.5012,-8.1787,-53.772,50.6592
1778683089.969884,10.90.50.196,2066311792,513700,0.6592,0.5021,0.5017,-10.0098,-55.7251,49.8047
1778683089.972157,10.90.50.196,2066315947,513701,0.6687,0.4955,0.5113,-9.9487,-56.1523,49.4385
1778683089.980314,10.90.50.196,2066319980,513702,0.6567,0.4809,0.5286,-12.2681,-56.9458,48.4009
1778683089.982664,10.90.50.196,2066323999,513703,0.6682,0.4809,0.5113,-13.855,-58.1665,47.5464
1778683089.984562,10.90.50.196,2066329522,513704,0.6701,0.4967,0.5169,-14.5264,-58.1665,46.6919
1778683089.99647,10.90.50.196,2066334456,513705,0.6824,0.5136,0.5315,-14.1602,-57.4951,46.1426
1778683089.997598,10.90.50.196,2066337764,513706,0.657,0.5082,0.5581,-16.6626,-55.481,45.105
1778683089.997598,10.90.50.196,2066340714,513707,0.6545,0.4997,0.5503,-18.6768,-56.7627,43.457
1778683090.005573,10.90.50.196,2066344107,513708,0.666,0.4965,0.5352,-19.2261,-57.312,41.9312
1778683090.005573,10.90.50.196,2066347991,513709,0.6565,0.496,0.5366,-20.6909,-58.5938,40.8936
1778683090.026718,10.90.50.196,2066351932,513710,0.6477,0.4872,0.5371,-19.4092,-58.96,39.2456
1778683090.031052,10.90.50.196,2066356056,513711,0.6438,0.4809,0.5288,-17.9443,-58.0444,37.9639
1778683090.031052,10.90.50.196,2066360040,513712,0.6491,0.4709,0.5266,-19.2871,-58.2275,39.0015
1778683090.031052,10.90.50.196,2066363939,513713,0.6535,0.4684,0.5291,-20.9351,-58.2275,40.4663
1778683090.031052,10.90.50.196,2066367962,513714,0.654,0.466,0.5181,-19.2871,-57.6172,42.0532
1778683090.039082,10.90.50.196,2066372102,513715,0.6533,0.4696,0.5179,-18.3105,-56.9458,42.8467
1778683090.039082,10.90.50.196,2066376102,513716,0.6513,0.456,0.5342,-16.8457,-56.3354,43.7012
1778683090.039082,10.90.50.196,2066380055,513717,0.654,0.4613,0.5345,-15.5029,-55.8472,44.8608
1778683090.039082,10.90.50.196,2066384098,513718,0.6545,0.4677,0.5352,-13.6108,-55.7861,45.8374
1778683090.039082,10.90.50.196,2066388015,513719,0.6584,0.4736,0.533,-11.4746,-56.8848,46.2036
1778683090.050334,10.90.50.196,2066392027,513720,0.6538,0.4655,0.545,-9.3994,-55.7251,46.2036
1778683090.052614,10.90.50.196,2066396147,513721,0.6526,0.4621,0.5464,-8.4229,-53.894,47.4854
1778683090.055781,10.90.50.196,2066401115,513722,0.6511,0.4486,0.5598,-8.606,-53.0396,49.9878
1778683090.055781,10.90.50.196,2066404063,513723,0.6484,0.4372,0.5762,-5.6152,-50.7812,52.2461
1778683090.055781,10.90.50.196,2066408152,513724,0.6296,0.4313,0.5928,-1.709,-47.3022,55.7861
1778683090.055781,10.90.50.196,2066412137,513725,0.6452,0.4159,0.5957,0.1221,-45.105,59.8755
1778683090.072356,10.90.50.196,2066416062,513726,0.6518,0.3957,0.6133,3.418,-43.5181,65.2466
1778683090.080224,10.90.50.196,2066420189,513727,0.6894,0.393,0.6013,8.3618,-41.8091,68.5425
1778683090.08078,10.90.50.196,2066424189,513728,0.7202,0.4181,0.5618,15.0757,-39.856,70.4956
1778683090.08078,10.90.50.196,2066428255,513729,0.7361,0.4631,0.5215,24.5972,-35.4614,70.0684
1778683090.092636,10.90.50.196,2066434884,513730,0.6743,0.505,0.5132,31.1279,-29.1748,68.4204
1778683090.095339,10.90.50.196,2066438057,513731,0.624,0.5551,0.5108,29.48,-27.5269,66.2231
1778683090.097825,10.90.50.196,2066440987,513732,0.6096,0.5871,0.4947,26.3062,-29.8462,63.6597
1778683090.097825,10.90.50.196,2066444303,513733,0.614,0.5878,0.4634,24.1089,-29.8462,59.2041
1778683090.105569,10.90.50.196,2066448201,513734,0.6394,0.5605,0.4529,19.5923,-36.2549,57.1289
1778683090.105569,10.90.50.196,2066452307,513735,0.6325,0.5224,0.4817,14.6484,-36.499,56.1523
1778683090.122816,10.90.50.196,2066456338,513736,0.6313,0.5041,0.4983,14.7705,-36.438,55.603
1778683090.122816,10.90.50.196,2066460225,513737,0.644,0.4853,0.5078,13.1836,-37.2925,56.2134
1778683090.122816,10.90.50.196,2066464201,513738,0.6377,0.4816,0.5186,15.2588,-36.499,56.3354
1778683090.122816,10.90.50.196,2066468241,513739,0.6423,0.4806,0.5247,16.6016,-38.0249,56.7627
1778683090.122816,10.90.50.196,2066472338,513740,0.654,0.4831,0.5264,16.9067,-38.5132,57.4341
1778683090.122816,10.90.50.196,2066476382,513741,0.665,0.4875,0.5345,16.6016,-40.7715,56.8848
1778683090.138442,10.90.50.196,2066480361,513742,0.6562,0.4936,0.5403,20.1416,-37.2314,56.1523
1778683090.140834,10.90.50.196,2066484354,513743,0.6538,0.5055,0.5423,20.874,-36.438,55.6641
1778683090.140834,10.90.50.196,2066488436,513744,0.6687,0.5136,0.5371,16.9067,-40.1611,56.0913
1778683090.140834,10.90.50.196,2066492426,513745,0.6633,0.5287,0.5357,17.8833,-37.6587,55.2979
1778683090.140834,10.90.50.196,2066496426,513746,0.655,0.5404,0.5413,20.3247,-34.9731,54.0161
1778683090.155444,10.90.50.196,2066501291,513747,0.6482,0.5378,0.543,15.3809,-36.1938,52.9785
1778683090.155444,10.90.50.196,2066504449,513748,0.6701,0.5497,0.5337,13.6719,-37.5366,51.8188
1778683090.155444,10.90.50.196,2066508348,513749,0.6865,0.5566,0.4986,16.9678,-34.729,50.293
1778683090.155444,10.90.50.196,2066512338,513750,0.6504,0.5409,0.542,10.437,-33.3252,49.9878
1778683090.172263,10.90.50.196,2066516430,513751,0.6667,0.5487,0.4954,11.8408,-31.4941,50.5981
1778683090.172263,10.90.50.196,2066520341,513752,0.6521,0.54,0.5012,6.8359,-34.729,52.3682
1778683090.172263,10.90.50.196,2066524472,513753,0.6162,0.5258,0.4905,4.2725,-31.1279,53.833
1778683090.172263,10.90.50.196,2066528402,513754,0.6443,0.5463,0.4671,8.3618,-35.0952,53.2837
1778683090.189284,10.90.50.196,2066535648,513755,0.5998,0.5385,0.4651,5.0049,-32.1045,53.9551
1778683090.189284,10.90.50.196,2066538704,513756,0.6157,0.5226,0.458,5.5542,-36.9873,54.3823
1778683090.189284,10.90.50.196,2066541749,513757,0.6011,0.5263,0.4639,3.9673,-36.438,54.9316
1778683090.189284,10.90.50.196,2066544779,513758,0.6391,0.5419,0.4517,7.1411,-40.1001,55.2979
1778683090.205505,10.90.50.196,2066548430,513759,0.634,0.5658,0.4619,5.6152,-40.5884,56.7017
1778683090.205505,10.90.50.196,2066552555,513760,0.6008,0.549,0.5061,3.418,-40.3442,57.1899
1778683090.222025,10.90.50.196,2066556569,513761,0.6123,0.578,0.4932,5.8594,-41.0767,56.8237
1778683090.238921,10.90.50.196,2066560502,513762,0.5923,0.5624,0.5159,0.7935,-40.4053,58.1055
1778683090.238921,10.90.50.196,2066564539,513763,0.5893,0.5551,0.5269,-1.5259,-42.8467,57.9224
1778683090.238921,10.90.50.196,2066568573,513764,0.6091,0.5309,0.5135,-2.5024,-42.7246,58.4106
1778683090.238921,10.90.50.196,2066572490,513765,0.6323,0.5336,0.4973,-1.2207,-43.8232,59.3872
1778683090.238921,10.90.50.196,2066576590,513766,0.6076,0.538,0.5032,-2.3804,-40.0391,61.0352
1778683090.238921,10.90.50.196,2066580574,513767,0.6096,0.5517,0.5179,-2.6245,-41.8701,61.5234
1778683090.238921,10.90.50.196,2066584666,513768,0.613,0.5568,0.5064,-0.2441,-39.6729,60.5469
1778683090.238921,10.90.50.196,2066588621,513769,0.6032,0.5431,0.541,-2.5024,-42.9688,60.4858
1778683090.238921,10.90.50.196,2066592731,513770,0.6123,0.5309,0.5493,-1.9531,-42.7856,58.8379
1778683090.238921,10.90.50.196,2066596648,513771,0.6186,0.5419,0.5166,1.2817,-40.6494,58.8989
1778683090.255459,10.90.50.196,2066601593,513772,0.6181,0.5373,0.5091,-2.8076,-41.3208,61.6455
1778683090.255459,10.90.50.196,2066604669,513773,0.604,0.5295,0.5103,-5.5542,-40.8325,63.2935
1778683090.255459,10.90.50.196,2066608714,513774,0.6162,0.5221,0.5052,-3.0518,-42.4194,63.0493
1778683090.27208,10.90.50.196,2066612647,513775,0.6111,0.5351,0.5069,-0.8545,-41.0156,61.8896
1778683090.27208,10.90.50.196,2066616673,513776,0.6306,0.5441,0.5012,1.709,-40.9546,61.2183
1778683090.27208,10.90.50.196,2066620630,513777,0.6462,0.5424,0.5154,-1.0986,-44.7998,62.1338
1778683090.27208,10.90.50.196,2066624645,513778,0.6531,0.5397,0.5074,-1.6479,-42.4194,61.5845
1778683090.285491,10.90.50.196,2066628692,513779,0.6736,0.559,0.5401,-2.9907,-43.7622,61.7065
1778683090.288893,10.90.50.196,2066635888,513780,0.6282,0.56,0.5796,-6.1646,-39.1235,61.8896
1778683090.288893,10.90.50.196,2066639137,513781,0.6357,0.56,0.5733,-6.6528,-39.917,60.6689
1778683090.302047,10.90.50.196,2066642030,513782,0.6328,0.5622,0.554,-10.8643,-42.3584,60.1807
1778683090.302047,10.90.50.196,2066644745,513783,0.6245,0.5265,0.5523,-11.2915,-41.5039,57.9834
1778683090.305481,10.90.50.196,2066648854,513784,0.6672,0.5407,0.5003,-7.2632,-40.6494,57.0679
1778683090.305481,10.90.50.196,2066652863,513785,0.6069,0.5304,0.5052,-8.1177,-35.4004,59.4482
1778683090.313,10.90.50.196,2066656853,513786,0.5945,0.5002,0.5174,-11.7188,-36.8652,60.5469
1778683090.316996,10.90.50.196,2066660769,513787,0.6069,0.505,0.5122,-12.8784,-39.2456,61.9507
1778683090.322637,10.90.50.196,2066665791,513788,0.6199,0.5129,0.5154,-9.8877,-40.5884,61.0352
1778683090.333521,10.90.50.196,2066668782,513789,0.6018,0.5197,0.531,-7.9346,-39.3066,61.5234
1778683090.338517,10.90.50.196,2066672944,513790,0.5835,0.5361,0.5249,-8.667,-38.0249,63.4766
1778683090.338517,10.90.50.196,2066676855,513791,0.5986,0.5451,0.5149,-8.5449,-38.6353,64.5142
1778683090.338517,10.90.50.196,2066680853,513792,0.573,0.537,0.5518,-9.2773,-39.1846,64.5142
1778683090.346056,10.90.50.196,2066684802,513793,0.6142,0.5724,0.563,-5.249,-44.7998,63.4155
1778683090.346056,10.90.50.196,2066688932,513794,0.5959,0.508,0.594,-4.6997,-47.1802,62.561
1778683090.349052,10.90.50.196,2066692995,513795,0.6416,0.4797,0.5506,-9.7656,-49.9878,66.04
1778683090.355994,10.90.50.196,2066697952,513796,0.6799,0.5422,0.4803,-9.5215,-47.1191,70.4346
1778683090.355994,10.90.50.196,2066701078,513797,0.6372,0.5151,0.5066,-13.4888,-44.3115,73.7305
1778683090.370118,10.90.50.196,2066704947,513798,0.6391,0.5522,0.4837,-12.5122,-43.6401,73.2422
1778683090.370118,10.90.50.196,2066708982,513799,0.6047,0.5268,0.5332,-10.376,-45.2271,70.0684
1778683090.370118,10.90.50.196,2066712983,513800,0.6657,0.571,0.5078,-4.5776,-45.4102,67.0776
1778683090.372213,10.90.50.196,2066716919,513801,0.5295,0.5595,0.5374,-8.667,-36.9873,71.6553
1778683090.376169,10.90.50.196,2066720941,513802,0.5117,0.6144,0.4995,-13.9771,-34.5459,74.5239
1778683090.381605,10.90.50.196,2066724903,513803,0.508,0.5326,0.472,-15.0146,-38.3301,73.7305
1778683090.387637,10.90.50.196,2066730815,513804,0.4804,0.3981,0.5276,-10.3149,-45.5933,71.5942
1778683090.389445,10.90.50.196,2066733856,513805,0.5945,0.4128,0.5049,5.9204,-58.4106,65.6128
1778683090.395095,10.90.50.196,2066739240,513806,0.7666,0.5656,0.3899,12.3901,-57.1899,67.5659
1778683090.399089,10.90.50.196,2066742157,513807,0.6689,0.5924,0.418,4.3335,-35.6445,78.2471
1778683090.400212,10.90.50.196,2066745099,513808,0.4258,0.5173,0.5459,0.6714,-26.6724,81.7261
1778683090.405823,10.90.50.196,2066749007,513809,0.5583,0.7304,0.3777,0.6714,-32.6538,80.2612
1778683090.405823,10.90.50.196,2066753136,513810,0.4665,0.7353,0.375,-19.7144,-26.2451,87.4023
1778683090.405823,10.90.50.196,2066757146,513811,0.3862,0.5278,0.4969,-31.6772,-37.0483,85.5713
1778683090.418644,10.90.50.196,2066762362,513812,0.4885,0.351,0.5493,-20.1416,-57.6172,69.8242
1778683090.43209,10.90.50.196,2066765330,513813,0.7991,0.3678,0.4944,-0.2441,-68.1152,61.0962
1778683090.434131,10.90.50.196,2066769136,513814,0.7976,0.3327,0.5894,10.6201,-56.0303,65.3687
1778683090.434131,10.90.50.196,2066773141,513815,0.7092,0.4965,0.5708,12.085,-35.1562,75.0122
1778683090.434131,10.90.50.196,2066777138,513816,0.5969,0.5375,0.6219,4.0894,-30.7617,84.9609
1778683090.439418,10.90.50.196,2066781088,513817,0.521,0.434,0.7559,10.6812,-43.2739,82.5195
1778683090.439418,10.90.50.196,2066785065,513818,0.7512,0.4491,0.6333,30.5786,-63.8428,69.9463
1778683090.439418,10.90.50.196,2066789110,513819,0.883,0.6029,0.4571,27.2217,-54.5044,73.7305
1778683090.450449,10.90.50.196,2066794374,513820,0.7114,0.7033,0.4217,12.3901,-23.6816,87.4023
1778683090.452483,10.90.50.196,2066797382,513821,0.4053,0.652,0.5349,-3.6621,-10.437,93.5059
1778683090.456721,10.90.50.196,2066801123,513822,0.4109,0.6149,0.5108,-5.8594,-30.1514,85.6323
1778683090.46108,10.90.50.196,2066805144,513823,0.5879,0.6217,0.3711,-6.4697,-47.1802,76.8433
1778683090.465075,10.90.50.196,2066809142,513824,0.7275,0.6444,0.2512,-11.6577,-47.5464,72.4487
1778683090.467106,10.90.50.196,2066813141,513825,0.583,0.6259,0.3557,-17.2119,-31.5552,73.6694
1778683090.472206,10.90.50.196,2066817260,513826,0.4619,0.599,0.5098,-22.9492,-26.8555,78.4912
1778683090.472206,10.90.50.196,2066821178,513827,0.3989,0.4482,0.6792,-32.4707,-39.4897,78.6133
1778683090.481939,10.90.50.196,2066826469,513828,0.6201,0.402,0.6001,-18.4326,-60.9131,68.7866
1778683090.484936,10.90.50.196,2066829508,513829,0.6719,0.3896,0.5303,-14.4653,-54.2603,72.1436
1778683090.488921,10.90.50.196,2066833357,513830,0.6819,0.5356,0.4656,-16.3574,-41.626,87.5244
1778683090.495836,10.90.50.196,2066837406,513831,0.624,0.5705,0.489,-20.3857,-33.2031,93.0786
1778683090.498834,10.90.50.196,2066841572,513832,0.562,0.5409,0.5235,-12.8784,-35.0952,86.5479
1778683090.499868,10.90.50.196,2066845283,513833,0.52,0.548,0.5423,-12.2681,-41.8701,84.4727
1778683090.505604,10.90.50.196,2066849390,513834,0.5761,0.5256,0.5222,-16.1133,-48.5229,82.7637
1778683090.509093,10.90.50.196,2066853306,513835,0.6145,0.4716,0.5059,-16.7847,-51.0254,82.2144
1778683090.514807,10.90.50.196,2066858545,513836,0.5908,0.4511,0.4964,-15.7471,-48.584,85.022
1778683090.517805,10.90.50.196,2066861459,513837,0.561,0.4523,0.4966,-13.7329,-48.2788,88.3179
1778683090.520836,10.90.50.196,2066865452,513838,0.5827,0.4892,0.4644,-9.3994,-51.8799,90.8813
1778683090.539896,10.90.50.196,2066869469,513839,0.6169,0.5214,0.4292,-7.1411,-54.6875,93.2617
1778683090.539896,10.90.50.196,2066873338,513840,0.6401,0.5446,0.4317,-6.4087,-55.0537,95.8862
1778683090.539896,10.90.50.196,2066877322,513841,0.7099,0.5529,0.481,-11.8408,-66.4673,97.0459
1778683090.539896,10.90.50.196,2066881394,513842,0.7075,0.5268,0.5616,-11.9629,-70.4956,94.6045
1778683090.54366,10.90.50.196,2066885511,513843,0.6828,0.5439,0.5833,-7.6294,-58.1055,90.21
1778683090.545689,10.90.50.196,2066890655,513844,0.6391,0.5776,0.606,-10.5591,-52.6733,91.1255
1778683090.556226,10.90.50.196,2066893703,513845,0.6636,0.6007,0.5789,-14.8315,-52.124,92.4072
1778683090.556226,10.90.50.196,2066897515,513846,0.6965,0.6134,0.5354,-17.8833,-51.4526,92.7734
1778683090.556226,10.90.50.196,2066901492,513847,0.6758,0.6125,0.5012,-20.2637,-47.8516,91.7969
1778683090.556226,10.90.50.196,2066905509,513848,0.6426,0.6029,0.5027,-20.9351,-44.4946,89.4165
1778683090.565935,10.90.50.196,2066909438,513849,0.5952,0.5673,0.5213,-24.4751,-45.0439,85.3882
1778683090.569932,10.90.50.196,2066913540,513850,0.5752,0.5253,0.5281,-24.6582,-46.7529,81.9092
1778683090.572416,10.90.50.196,2066917544,513851,0.5871,0.5058,0.5154,-25.4517,-47.7295,80.6885
1778683090.580571,10.90.50.196,2066922648,513852,0.6062,0.5009,0.4893,-23.0713,-47.1191,80.3833
1778683090.582569,10.90.50.196,2066926259,513853,0.5893,0.4855,0.4776,-17.1509,-45.8374,81.0547
1778683090.583601,10.90.50.196,2066929477,513854,0.5691,0.4733,0.4878,-12.3291,-45.0439,82.0923
1778683090.588995,10.90.50.196,2066933481,513855,0.5896,0.4667,0.4991,-10.437,-48.2788,84.1064
1778683090.60033,10.90.50.196,2066937513,513856,0.6223,0.4779,0.5,-7.7515,-51.0864,85.3882
1778683090.60033,10.90.50.196,2066942343,513857,0.6606,0.4943,0.5108,-3.0518,-54.3823,84.5947
1778683090.60033,10.90.50.196,2066945571,513858,0.6775,0.5114,0.5249,0.9766,-53.9551,82.1533
1778683090.606169,10.90.50.196,2066949665,513859,0.6806,0.5241,0.5481,2.7466,-53.4668,80.2612
1778683090.611641,10.90.50.196,2066954841,513860,0.687,0.5365,0.5596,0.3052,-53.1616,80.2002
1778683090.613639,10.90.50.196,2066957890,513861,0.687,0.5385,0.5581,-3.8452,-53.2227,81.4209
1778683090.615664,10.90.50.196,2066961674,513862,0.6804,0.5385,0.5384,-7.9956,-53.0396,82.3975
1778683090.622262,10.90.50.196,2066965711,513863,0.6892,0.5385,0.5093,-9.7656,-52.7954,82.5806
1778683090.642094,10.90.50.196,2066969670,513864,0.6816,0.5309,0.4981,-14.6484,-52.7344,83.313
1778683090.648113,10.90.50.196,2066973598,513865,0.6728,0.5295,0.4739,-15.3809,-50.354,83.0078
1778683090.648113,10.90.50.196,2066977638,513866,0.6692,0.5295,0.4693,-16.7847,-49.4995,82.7026
1778683090.648113,10.90.50.196,2066981732,513867,0.6421,0.528,0.4661,-18.5547,-47.9126,83.0078
1778683090.648113,10.90.50.196,2066986514,513868,0.6545,0.539,0.4385,-21.3013,-51.5747,83.6182
1778683090.652868,10.90.50.196,2066990154,513869,0.6189,0.5285,0.4419,-25.4517,-52.7344,85.144
1778683090.652868,10.90.50.196,2066993670,513870,0.6413,0.5641,0.4114,-24.0479,-54.4434,84.6558
1778683090.654866,10.90.50.196,2066997832,513871,0.6372,0.5763,0.4258,-26.6113,-61.7676,82.9468
1778683090.658648,10.90.50.196,2067001757,513872,0.6059,0.5614,0.4502,-29.6631,-58.1055,81.1768
1778683090.66416,10.90.50.196,2067005760,513873,0.6487,0.5668,0.4624,-34.0576,-64.0869,81.2378
1778683090.668189,10.90.50.196,2067009689,513874,0.643,0.5732,0.4637,-38.8184,-60.9741,79.4067
1778683090.672187,10.90.50.196,2067013804,513875,0.612,0.5256,0.5093,-42.6636,-61.4624,78.7964
1778683090.680443,10.90.50.196,2067019103,513876,0.6159,0.5138,0.5252,-43.2129,-66.04,77.3926
1778683090.683441,10.90.50.196,2067022179,513877,0.6697,0.5055,0.4888,-43.2739,-71.228,75.8057
1778683090.684496,10.90.50.196,2067025786,513878,0.688,0.5114,0.4822,-45.4712,-71.4111,76.9653
1778683090.688301,10.90.50.196,2067029930,513879,0.6465,0.5175,0.5078,-48.7671,-67.1997,78.3081
1778683090.689278,10.90.50.196,2067033891,513880,0.5613,0.4926,0.5689,-50.2319,-63.7207,76.1108
1778683090.689278,10.90.50.196,2067037810,513881,0.622,0.4848,0.5686,-46.2646,-74.707,75.0122
1778683090.701187,10.90.50.196,2067041912,513882,0.6819,0.4225,0.5679,-44.7998,-80.8105,75.8667
1778683090.701187,10.90.50.196,2067046494,513883,0.7124,0.38,0.5677,-45.5933,-78.5522,80.0781
1778683090.706089,10.90.50.196,2067051418,513884,0.7199,0.3673,0.565,-43.396,-73.7305,85.9375
1778683090.711445,10.90.50.196,2067054434,513885,0.7488,0.4025,0.5564,-40.0391,-70.1904,90.21
1778683090.715787,10.90.50.196,2067057977,513886,0.7126,0.3952,0.5845,-31.0669,-63.2935,91.3086
1778683090.715826,10.90.50.196,2067061892,513887,0.6902,0.3879,0.5965,-27.832,-58.7769,93.0786
1778683090.722314,10.90.50.196,2067065903,513888,0.6775,0.3476,0.6133,-22.3999,-60.9741,96.1304
1778683090.728034,10.90.50.196,2067069932,513889,0.6858,0.318,0.6223,-12.2681,-61.6455,97.3511
1778683090.746695,10.90.50.196,2067073864,513890,0.7243,0.3754,0.5928,-0.6714,-62.0728,98.4497
1778683090.747604,10.90.50.196,2067077955,513891,0.7192,0.4052,0.5669,4.3945,-56.2744,103.2715
1778683090.747604,10.90.50.196,2067083066,513892,0.7063,0.4923,0.5232,7.2021,-53.2227,109.8022
1778683090.75899,10.90.50.196,2067085970,513893,0.6421,0.559,0.4812,2.1973,-47.1802,116.272
1778683090.75899,10.90.50.196,2067089952,513894,0.636,0.5517,0.4929,-4.4556,-48.0957,120.0562
1778683090.75899,10.90.50.196,2067094031,513895,0.603,0.4567,0.5728,-4.6387,-52.063,119.5068
1778683090.75899,10.90.50.196,2067097978,513896,0.6421,0.3332,0.6165,3.2959,-65.1855,115.7837
1778683090.75899,10.90.50.196,2067101972,513897,0.7341,0.3749,0.5518,14.8926,-68.4814,112.4268
1778683090.776691,10.90.50.196,2067105972,513898,0.6577,0.4152,0.5984,20.9351,-57.7393,115.6006
1778683090.777714,10.90.50.196,2067109956,513899,0.4714,0.4921,0.7207,23.7427,-52.3071,122.1924
1778683090.777714,10.90.50.196,2067115077,513900,0.445,0.5788,0.7776,13.1226,-65.1855,128.3569
1778683090.78143,10.90.50.196,2067117991,513901,0.6045,0.6281,0.7266,-0.5493,-86.6699,129.4556
1778683090.78143,10.90.50.196,2067122042,513902,0.758,0.62,0.6194,-7.6904,-93.6279,126.0986
1778683090.784693,10.90.50.196,2067126029,513903,0.8467,0.5241,0.5762,-12.4512,-95.3369,124.4507
1778683090.788309,10.90.50.196,2067130155,513904,0.8677,0.5124,0.4912,-13.6108,-88.8062,123.7183
1778683090.789507,10.90.50.196,2067134166,513905,0.6919,0.3903,0.5918,-18.4937,-74.5239,126.5869
1778683090.796275,10.90.50.196,2067138155,513906,0.7033,0.4535,0.5511,-10.1318,-76.6602,126.0376
1778683090.798391,10.90.50.196,2067142223,513907,0.6411,0.4062,0.5862,-11.9629,-77.0264,127.2583
1778683090.814963,10.90.50.196,2067149377,513908,0.6277,0.2533,0.6573,-5.7983,-87.8296,127.3804
1778683090.814963,10.90.50.196,2067152344,513909,0.7246,0.186,0.7285,14.6484,-104.0039,127.3804
1778683090.822234,10.90.50.196,2067155255,513910,0.8398,0.2016,0.6668,29.6021,-107.2388,129.7607
1778683090.822234,10.90.50.196,2067158268,513911,0.8664,0.2653,0.5977,34.9121,-98.1445,137.0239
1778683090.822234,10.90.50.196,2067162161,513912,0.8364,0.3268,0.6465,46.0815,-85.8765,143.7378
1778683090.826293,10.90.50.196,2067166196,513913,0.7353,0.3908,0.7456,53.894,-75.5005,148.3765
1778683090.828213,10.90.50.196,2067170295,513914,0.709,0.4372,0.8064,56.2744,-77.4536,152.71
1778683090.85193,10.90.50.196,2067174243,513915,0.718,0.4533,0.8394,53.894,-84.0454,156.4331
1778683090.85193,10.90.50.196,2067178174,513916,0.7612,0.445,0.8191,54.2603,-86.1816,157.8979
1778683090.85193,10.90.50.196,2067182352,513917,0.78,0.4477,0.7996,51.8188,-86.4258,162.2314
1778683090.852975,10.90.50.196,2067186263,513918,0.7505,0.4084,0.8167,48.4619,-82.2754,167.7856
1778683090.852975,10.90.50.196,2067190360,513919,0.6921,0.3925,0.8211,47.7905,-78.6133,173.7061
1778683090.855941,10.90.50.196,2067194259,513920,0.6513,0.3547,0.8406,48.4009,-79.2236,179.0161
1778683090.856803,10.90.50.196,2067198327,513921,0.6565,0.3393,0.8128,48.2788,-80.6885,186.2793
1778683090.856803,10.90.50.196,2067202338,513922,0.657,0.3561,0.8218,53.7109,-82.3975,193.3594
1778683090.856803,10.90.50.196,2067206338,513923,0.6355,0.4042,0.8653,60.0586,-81.665,195.1904
1778683090.8663,10.90.50.196,2067210302,513924,0.6035,0.4736,0.9087,66.5283,-79.7119,194.2749
1778683090.87241,10.90.50.196,2067215209,513925,0.5852,0.5136,0.9329,73.7305,-79.2236,193.7866
1778683090.87241,10.90.50.196,2067218401,513926,0.5791,0.5402,0.9722,71.0449,-88.9282,194.0918
1778683090.87241,10.90.50.196,2067222332,513927,0.6098,0.5683,0.9825,69.8853,-92.4683,194.6411
1778683090.87241,10.90.50.196,2067226338,513928,0.6164,0.5861,1.0257,67.1387,-93.2617,195.7397
1778683090.887947,10.90.50.196,2067230338,513929,0.5903,0.5978,1.0667,62.561,-89.6606,194.0918
1778683090.891129,10.90.50.196,2067234463,513930,0.5832,0.6396,1.0542,62.9883,-82.8857,194.2139
1778683090.899812,10.90.50.196,2067238443,513931,0.5427,0.6645,1.0755,65.7959,-81.1768,198.1812
1778683090.899812,10.90.50.196,2067242501,513932,0.479,0.7245,1.0764,70.8008,-75.1343,203.4912
1778683090.905612,10.90.50.196,2067249347,513933,0.3955,0.8029,1.053,67.9321,-77.0264,209.4116
1778683090.905612,10.90.50.196,2067253178,513934,0.3181,0.8681,1.0059,60.8521,-85.3271,218.3838
1778683090.905612,10.90.50.196,2067256100,513935,0.2116,0.8393,0.9663,48.8281,-106.6284,229.0649
1778683090.905612,10.90.50.196,2067259107,513936,0.1365,1.0151,0.8826,41.9922,-134.5825,236.2061
1778683090.905612,10.90.50.196,2067262435,513937,0.2251,0.7716,0.721,27.1606,-174.8047,244.3848
1778683090.923112,10.90.50.196,2067266457,513938,0.3122,0.8183,0.617,22.644,-198.5474,240.2344
1778683090.923112,10.90.50.196,2067270475,513939,0.4077,0.7704,0.5764,32.7148,-235.1685,238.6475
1778683090.930396,10.90.50.196,2067274537,513940,0.6885,0.6637,0.3452,16.6626,-266.7847,230.3467
1778683090.954855,10.90.50.196,2067279543,513941,0.9089,0.5531,0.3228,9.3384,-296.7529,227.478
1778683090.954855,10.90.50.196,2067282581,513942,1.1692,0.3752,0.4041,29.48,-336.4258,220.3369
1778683090.955795,10.90.50.196,2067286480,513943,1.5559,0.3529,0.448,84.2896,-381.1035,203.5522
1778683090.955795,10.90.50.196,2067290559,513944,1.9909,0.445,0.4868,118.8354,-417.1753,192.1997
1778683090.955795,10.90.50.196,2067294615,513945,2.2136,0.5556,0.6341,132.5684,-419.7998,210.083
1778683090.955795,10.90.50.196,2067298675,513946,2.2983,0.5163,0.8299,126.0986,-406.189,229.3091
1778683090.955795,10.90.50.196,2067302667,513947,2.2622,0.5351,1.0625,118.4082,-406.8604,239.8071
1778683090.955795,10.90.50.196,2067306502,513948,2.2629,0.539,1.0791,138.2446,-380.9204,245.3003
1778683090.971409,10.90.50.196,2067311756,513949,2.2732,0.6476,1.1424,137.085,-388.7329,254.1504
1778683090.971409,10.90.50.196,2067314983,513950,2.0805,0.6962,1.1524,144.7144,-360.7788,257.5684
1778683090.972517,10.90.50.196,2067318638,513951,1.768,0.7189,1.3067,152.4658,-344.8486,258.7891
1778683090.972517,10.90.50.196,2067322641,513952,1.5832,0.7746,1.2732,150.5737,-324.707,254.0283
1778683090.972517,10.90.50.196,2067326609,513953,1.3745,0.7497,1.2068,139.0381,-300.354,253.7231
1778683090.988268,10.90.50.196,2067330560,513954,1.0776,0.6637,1.2561,130.9204,-273.1323,250.9155
1778683090.989428,10.90.50.196,2067334569,513955,0.7615,0.5441,1.3108,131.3477,-243.2251,243.2861
1778683090.99732,10.90.50.196,2067338593,513956,0.4519,0.4135,1.3719,136.9019,-223.5718,236.8164
1778683091.001371,10.90.50.196,2067344953,513957,0.2573,0.298,1.3272,146.8506,-211.731,228.6377
1778683091.005439,10.90.50.196,2067348031,513958,0.1076,0.2236,1.2281,155.0293,-205.0781,223.938
1778683091.009158,10.90.50.196,2067353614,513959,-0.1433,0.1977,1.1783,165.6494,-176.0254,221.0693
1778683091.014155,10.90.50.196,2067356531,513960,-0.4693,0.2052,1.222,177.124,-121.2769,219.6045
1778683091.022135,10.90.50.196,2067359455,513961,-0.7676,0.1772,1.1648,176.3916,-67.9321,220.3979
1778683091.028192,10.90.50.196,2067362776,513962,-0.5972,0.1801,0.7862,163.9404,-97.7173,225.769
1778683091.028192,10.90.50.196,2067366712,513963,-0.281,0.1891,0.419,154.8462,-203.064,232.5439
1778683091.02851,10.90.50.196,2067370754,513964,0.0532,0.134,0.1502,157.959,-311.2793,227.6001
1778683091.039273,10.90.50.196,2067376068,513965,0.5083,0.1315,-0.1037,165.3442,-363.2202,218.2617
1778683091.039273,10.90.50.196,2067379122,513966,1.0803,0.1169,-0.4165,176.2695,-374.4507,212.2192
1778683091.056873,10.90.50.196,2067382824,513967,1.5642,0.1532,-0.6863,226.6846,-420.166,201.0498
1778683091.056873,10.90.50.196,2067386834,513968,2.2138,0.3195,-1.0251,320.1294,-533.1421,167.7246
1778683091.056873,10.90.50.196,2067390748,513969,2.9983,0.7148,-1.3955,403.6865,-658.3862,143.6768
1778683091.056873,10.90.50.196,2067394851,513970,3.676,1.4511,-1.3115,490.9668,-616.5161,137.0239
1778683091.057223,10.90.50.196,2067398771,513971,3.6484,2.2809,-0.8586,611.2061,-175.415,146.4844
1778683091.059176,10.90.50.196,2067402776,513972,3.1404,2.3505,-0.49,715.0269,401.8555,138.6108
1778683091.063604,10.90.50.196,2067407927,513973,1.3415,2.0263,0.8228,576.355,615.4785,205.8716
1778683091.067625,10.90.50.196,2067410986,513974,-0.2085,1.7914,1.7967,347.0459,481.6895,369.5068
1778683091.072685,10.90.50.196,2067414965,513975,-1.1028,1.6247,2.3262,189.0259,271.7285,468.0176
1778683091.072685,10.90.50.196,2067418882,513976,-1.0642,1.8053,2.7398,116.2109,119.0796,419.0674
1778683091.078893,10.90.50.196,2067422941,513977,-0.6018,1.8185,2.9536,122.0093,49.4995,332.1533
1778683091.082889,10.90.50.196,2067426941,513978,0.1274,1.7502,2.6087,86.731,6.6528,277.9541
1778683091.083912,10.90.50.196,2067430891,513979,0.4211,1.5636,1.7464,5.0659,46.2646,233.6426
1778683091.089246,10.90.50.196,2067434883,513980,0.5151,1.2958,1.0589,-18.1885,100.2197,155.7617
1778683091.097001,10.90.50.196,2067439946,513981,0.3884,1.4557,0.6045,23.3765,161.499,53.9551
1778683091.098999,10.90.50.196,2067442922,513982,0.081,1.2204,0.3025,53.1616,236.5723,-73.0591
1778683091.105366,10.90.50.196,2067447016,513983,-0.0735,0.915,0.2022,32.6538,216.0645,-128.7231
1778683091.106369,10.90.50.196,2067450887,513984,-0.2158,0.7797,0.0696,-26.7944,198.1812,-137.6343
1778683091.112086,10.90.50.196,2067456012,513985,-0.262,0.6318,-0.0671,-60.9131,195.9229,-144.4702
1778683091.116089,10.90.50.196,2067458968,513986,-0.2334,0.4611,-0.1555,-82.9468,176.9409,-156.4941
1778683091.119786,10.90.50.196,2067462929,513987,-0.1922,0.2941,-0.2085,-95.52,145.874,-169.9219
1778683091.124513,10.90.50.196,2067467054,513988,-0.1558,0.1618,-0.2273,-90.1489,110.5957,-191.2231
1778683091.129051,10.90.50.196,2067472005,513989,-0.0742,0.0829,-0.207,-68.4814,66.1621,-216.1255
1778683091.13199,10.90.50.196,2067475076,513990,0.0215,0.0446,-0.1345,-40.5884,34.5459,-242.6147
1778683091.132945,10.90.50.196,2067479138,513991,0.0993,0.0522,0.0191,-10.2539,16.1743,-266.4185
1778683091.138891,10.90.50.196,2067482994,513992,0.1875,0.1142,0.2227,27.832,-1.4648,-288.208
1778683091.155504,10.90.50.196,2067487131,513993,0.3471,0.1928,0.4278,63.6597,-16.6016,-311.1572
1778683091.155504,10.90.50.196,2067491153,513994,0.5285,0.2775,0.6262,87.5854,-26.8555,-327.1484
1778683091.155504,10.90.50.196,2067495106,513995,0.7314,0.3905,0.8079,95.7642,-35.0342,-330.9937
1778683091.155504,10.90.50.196,2067499191,513996,0.9494,0.4821,0.9573,89.5996,-24.353,-329.0405
1778683091.165258,10.90.50.196,2067503792,513997,1.1199,0.5519,1.1065,78.5522,-3.54,-317.627
1778683091.166258,10.90.50.196,2067507174,513998,1.2475,0.5732,1.2454,54.6265,20.4468,-297.8516
1778683091.168586,10.90.50.196,2067511108,513999,1.4507,0.6908,1.1206,20.1416,55.7861,-274.5972
1778683091.172816,10.90.50.196,2067515219,514000,1.4402,0.7687,0.9871,-38.5132,122.9858,-232.9712
1778683091.175249,10.90.50.196,2067519166,514001,1.3293,0.6181,1.1011,-105.3467,176.9409,-185.1807
1778683091.179805,10.90.50.196,2067523138,514002,0.7605,0.2096,1.5887,-137.3901,186.8286,-133.3008
1778683091.184135,10.90.50.196,2067527255,514003,0.8301,-0.0514,1.6106,-144.2871,153.6865,-127.0752
1778683091.184566,10.90.50.196,2067531101,514004,1.4292,0.0356,1.2078,-115.7227,124.1455,-125.7324
1778683091.189641,10.90.50.196,2067536266,514005,1.5942,-0.0177,1.0215,-93.0176,162.1704,-139.0381
1778683091.196577,10.90.50.196,2067539255,514006,1.4909,0.0419,0.9082,-43.335,214.9658,-158.9355
1778683091.198694,10.90.50.196,2067543219,514007,1.2722,0.1713,0.8736,-6.4697,259.4604,-166.1987
1778683091.205585,10.90.50.196,2067547225,514008,0.9978,0.2309,0.8638,-20.9961,282.5928,-159.2407
1778683091.209823,10.90.50.196,2067551184,514009,0.9138,0.2453,0.7842,-39.6729,274.231,-145.3247
1778683091.213368,10.90.50.196,2067556081,514010,0.9182,0.2174,0.6697,-50.5981,266.0522,-138.9771
1778683091.217699,10.90.50.196,2067559642,514011,0.9155,0.1696,0.543,-52.8564,257.4463,-137.9395
1778683091.221043,10.90.50.196,2067563258,514012,0.9658,0.1369,0.4527,-47.3022,249.8169,-141.0522
1778683091.222226,10.90.50.196,2067568375,514013,0.9912,0.0851,0.4209,-33.02,241.5161,-144.8364
1778683091.228471,10.90.50.196,2067571458,514014,0.8984,0.0238,0.5012,-15.8081,239.3799,-146.0571
1778683091.231363,10.90.50.196,2067575335,514015,0.906,0.0173,0.5891,0.3052,231.0181,-145.3247
1778683091.233469,10.90.50.196,2067579322,514016,0.9404,0.017,0.6795,14.1602,219.9707,-143.7378
1778683091.239408,10.90.50.196,2067583363,514017,1.0271,0.0351,0.7466,29.9072,209.4116,-139.9536
1778683091.250774,10.90.50.196,2067587444,514018,1.1023,0.0612,0.794,41.0156,201.0498,-132.6294
1778683091.255674,10.90.50.196,2067591390,514019,1.1289,0.0888,0.8428,51.2695,195.4956,-123.8403
1778683091.255674,10.90.50.196,2067595444,514020,1.1741,0.1589,0.8572,64.4531,188.1104,-116.394
1778683091.255674,10.90.50.196,2067600647,514021,1.2226,0.2997,0.8474,76.8433,186.2793,-111.145
1778683091.261089,10.90.50.196,2067604194,514022,1.2871,0.4982,0.7996,85.5713,191.4062,-106.7505
1778683091.263735,10.90.50.196,2067607349,514023,1.1684,0.5824,0.8596,84.4116,199.4019,-100.0366
1778683091.265554,10.90.50.196,2067611378,514024,1.1257,0.6869,0.8401,81.2378,196.4111,-98.4497
1778683091.271479,10.90.50.196,2067615402,514025,1.1709,0.7843,0.7522,81.665,192.0166,-98.4497
1778683091.272448,10.90.50.196,2067619415,514026,1.1626,0.8578,0.7071,73.1201,190.7959,-94.9707
1778683091.279889,10.90.50.196,2067623451,514027,1.1338,0.9201,0.6751,67.9932,186.0962,-94.1162
1778683091.281153,10.90.50.196,2067627402,514028,1.135,0.9416,0.648,68.5425,186.2183,-105.1025
1778683091.281153,10.90.50.196,2067632572,514029,1.2021,0.9882,0.5701,74.707,173.0347,-116.8823
1778683091.289284,10.90.50.196,2067635639,514030,1.3398,1.0531,0.5122,77.2705,152.6489,-123.8403
1778683091.295933,10.90.50.196,2067639461,514031,1.5593,1.2174,0.4497,75.9888,133.7891,-128.3569
1778683091.297458,10.90.50.196,2067643454,514032,1.6765,1.319,0.4763,70.0684,119.6899,-135.9253
1778683091.297458,10.90.50.196,2067647478,514033,1.7214,1.4191,0.5486,56.8848,115.2344,-142.6392
1778683091.305802,10.90.50.196,2067651433,514034,1.7803,1.4506,0.6421,34.6069,106.3843,-149.0479
1778683091.318331,10.90.50.196,2067655552,514035,1.8428,1.3554,0.7508,10.1929,101.4404,-155.3345
1778683091.318331,10.90.50.196,2067660771,514036,1.8991,1.3251,0.7954,-14.6484,96.8018,-154.6021
1778683091.322401,10.90.50.196,2067666232,514037,2.032,1.2682,0.7574,-32.6538,97.229,-159.6069
1778683091.322401,10.90.50.196,2067669574,514038,2.0671,1.2128,0.7039,-45.9595,104.7974,-162.5366
1778683091.322401,10.90.50.196,2067672492,514039,2.0451,1.163,0.6238,-60.5469,118.8965,-162.1094
1778683091.322401,10.90.50.196,2067675616,514040,1.9487,1.0375,0.5552,-80.6274,131.1035,-158.1421
1778683091.322401,10.90.50.196,2067679607,514041,1.9182,0.944,0.4624,-92.4683,134.5825,-152.4658
1778683091.348282,10.90.50.196,2067683639,514042,1.9367,0.8808,0.3758,-100.0977,133.7891,-149.0479
1778683091.364391,10.90.50.196,2067687551,514043,1.9782,0.8554,0.2913,-98.5718,130.249,-153.1982
1778683091.364391,10.90.50.196,2067691540,514044,2.0361,0.8012,0.2473,-87.5244,127.3193,-164.6118
1778683091.364391,10.90.50.196,2067695649,514045,2.0776,0.7577,0.2356,-78.9795,121.8262,-173.2788
1778683091.364391,10.90.50.196,2067699722,514046,2.0642,0.6755,0.2437,-83.6792,118.8965,-170.8374
1778683091.365369,10.90.50.196,2067703618,514047,2.041,0.5605,0.2229,-93.1396,109.1919,-166.0156
1778683091.369505,10.90.50.196,2067707762,514048,2.1509,0.5497,0.1436,-91.1865,89.9048,-163.8794
1778683091.371,10.90.50.196,2067711674,514049,2.2124,0.5224,0.0391,-91.5527,74.585,-163.208
1778683091.372351,10.90.50.196,2067715762,514050,2.3196,0.4821,-0.0871,-97.7783,72.5708,-159.4238
1778683091.382431,10.90.50.196,2067719741,514051,2.3113,0.4064,-0.1819,-106.5674,77.4536,-153.4424
1778683091.383561,10.90.50.196,2067723664,514052,2.2651,0.3417,-0.2661,-115.8447,80.6274,-146.7285
1778683091.386133,10.90.50.196,2067727703,514053,2.259,0.3161,-0.3943,-128.54,77.6367,-141.2964
1778683091.389092,10.90.50.196,2067732446,514054,2.2593,0.2463,-0.5171,-146.4233,72.5708,-134.7046
1778683091.389092,10.90.50.196,2067735792,514055,2.3025,0.1271,-0.6782,-169.1895,64.7583,-128.3569
1778683091.398777,10.90.50.196,2067739696,514056,2.343,-0.012,-0.8569,-194.8242,53.5278,-119.0796
1778683091.398777,10.90.50.196,2067743741,514057,2.4165,-0.1329,-1.0498,-217.8345,45.8984,-107.1167
1778683091.404858,10.90.50.196,2067747894,514058,2.5044,-0.2701,-1.2422,-240.1123,39.6118,-102.356
1778683091.405937,10.90.50.196,2067751851,514059,2.6025,-0.338,-1.4267,-263.2446,31.7993,-103.2104
1778683091.415947,10.90.50.196,2067755865,514060,2.6631,-0.4041,-1.5847,-280.3345,30.9448,-110.9009
1778683091.417413,10.90.50.196,2067759778,514061,2.6606,-0.4356,-1.6916,-290.7104,48.0957,-133.0566
1778683091.422375,10.90.50.196,2067765942,514062,2.6013,-0.4686,-1.7309,-284.2407,75.0732,-161.438
1778683091.422375,10.90.50.196,2067768955,514063,2.4975,-0.5006,-1.7138,-264.7095,112.5488,-191.2842
1778683091.422375,10.90.50.196,2067772382,514064,2.271,-0.5177,-1.5893,-234.1919,157.4097,-217.1021
1778683091.422375,10.90.50.196,2067775860,514065,1.9931,-0.515,-1.4568,-207.7026,186.2793,-244.4458
1778683091.422375,10.90.50.196,2067779961,514066,1.7116,-0.4078,-1.2695,-185.1807,187.561,-257.4463
1778683091.442211,10.90.50.196,2067783851,514067,0.9358,-0.181,-0.8691,-168.0298,167.6025,-265.1978
1778683091.456041,10.90.50.196,2067787961,514068,0.5888,-0.0333,-0.4453,-116.1499,219.9097,-272.522
1778683091.456041,10.90.50.196,2067791853,514069,0.1191,0.0321,-0.0803,-72.5098,269.3481,-277.2827
1778683091.456041,10.90.50.196,2067796000,514070,-1.8577,0.4247,-0.145,-17.2119,183.5938,-265.8691
1778683091.456041,10.90.50.196,2067801058,514071,-0.103,-0.3429,-0.2212,21.8506,-41.748,46.2646
1778683091.456041,10.90.50.196,2067804360,514072,-0.063,-0.0313,0.1919,-80.0171,-139.7095,225.769
1778683091.456041,10.90.50.196,2067808036,514073,0.1562,-0.0379,-0.1311,-97.7173,-151.001,238.5864
1778683091.456041,10.90.50.196,2067812002,514074,-0.241,0.1025,0.0657,-82.0923,-114.563,212.3413
1778683091.4725,10.90.50.196,2067815948,514075,-0.1194,-0.0977,-0.1421,-33.7524,-56.4575,138.4888
1778683091.476985,10.90.50.196,2067819916,514076,-0.4934,0.0798,0.0584,-10.8032,-100.3418,188.0493
1778683091.480469,10.90.50.196,2067824058,514077,-0.3145,0.1589,-0.0312,3.418,-185.4248,197.3267
1778683091.485504,10.90.50.196,2067828040,514078,-0.4461,0.1474,-0.028,45.8984,-213.501,186.4624
1778683091.489069,10.90.50.196,2067833037,514079,-0.6358,0.1051,0.2837,102.7222,-184.6924,170.7764
1778683091.489069,10.90.50.196,2067836083,514080,-0.8865,0.1261,0.585,136.3525,-153.9307,179.5654
1778683091.489069,10.90.50.196,2067840136,514081,-1.0872,0.1247,0.7542,143.5547,-109.2529,162.3535
1778683091.489069,10.90.50.196,2067844060,514082,-1.1258,0.1891,0.7061,139.1602,-153.0762,150.8789
1778683091.506159,10.90.50.196,2067848163,514083,-0.6428,0.349,0.479,148.0103,-351.5625,146.5454
1778683091.509148,10.90.50.196,2067852149,514084,-0.0557,0.4819,0.2115,171.5088,-483.8867,142.395
1778683091.522463,10.90.50.196,2067856137,514085,0.1528,0.5497,0.2105,186.6455,-477.7832,145.4468
1778683091.522463,10.90.50.196,2067860166,514086,0.2654,0.5287,0.2998,170.9595,-474.1211,158.02
1778683091.529052,10.90.50.196,2067866972,514087,0.5749,0.4638,0.3523,141.2964,-486.5723,160.2173
1778683091.529052,10.90.50.196,2067870255,514088,1.3442,0.758,0.2923,87.9517,-581.1157,201.6602
1778683091.530457,10.90.50.196,2067873413,514089,2.1411,0.7165,0.3147,-18.9209,-857.2998,263.1836
1778683091.531521,10.90.50.196,2067876402,514090,3.134,1.0111,0.2539,-128.7842,-1131.1646,308.96
1778683091.537369,10.90.50.196,2067880201,514091,4.2365,1.1801,0.2141,-152.1606,-1007.2021,239.7461
1778683091.539285,10.90.50.196,2067884160,514092,4.4973,1.1361,0.4949,-78.064,-721.7407,173.0347
1778683091.548551,10.90.50.196,2067888110,514093,4.4221,1.0632,0.9273,20.0195,-468.2007,117.981
1778683091.555913,10.90.50.196,2067892223,514094,3.8596,0.8329,1.6192,91.3086,-193.2983,87.8296
1778683091.555913,10.90.50.196,2067896238,514095,2.7712,0.3522,2.5274,162.2314,-4.4556,123.7793
1778683091.571512,10.90.50.196,2067900316,514096,1.8081,0.519,2.9986,153.9307,64.7583,173.8892
1778683091.572514,10.90.50.196,2067904286,514097,1.0976,0.7907,3.073,117.4927,91.6748,200.7446
1778683091.572514,10.90.50.196,2067908248,514098,0.6719,0.8437,2.8626,80.2612,37.5977,184.9365
1778683091.572677,10.90.50.196,2067912167,514099,0.9739,0.7472,2.1873,58.1055,-61.3403,155.5176
1778683091.572677,10.90.50.196,2067916156,514100,1.1426,0.6452,1.44,24.1699,-88.8062,144.8975
1778683091.572677,10.90.50.196,2067920270,514101,1.2986,0.675,0.8889,-20.0195,-79.1016,162.0483
1778683091.572677,10.90.50.196,2067924217,514102,1.1579,0.665,0.4785,-35.0342,-29.6021,167.2363
1778683091.572677,10.90.50.196,2067928235,514103,0.979,0.5248,0.2124,-6.4697,21.9727,158.9355
1778683091.594098,10.90.50.196,2067933123,514104,0.8843,0.4723,-0.0071,26.123,45.4102,152.6489
1778683091.594098,10.90.50.196,2067936425,514105,0.9001,0.5937,-0.2431,40.1611,58.7158,159.8511
1778683091.597455,10.90.50.196,2067940263,514106,0.7656,0.7826,-0.3586,68.6035,60.4858,148.9868
1778683091.60466,10.90.50.196,2067944310,514107,0.7346,0.985,-0.4338,99.1821,30.0293,124.7559
1778683091.605664,10.90.50.196,2067948420,514108,0.519,0.998,-0.2036,107.1777,17.9443,106.5674
1778683091.607344,10.90.50.196,2067952444,514109,0.0832,0.8681,0.1868,111.3892,31.1279,78.0029
1778683091.61536,10.90.50.196,2067956453,514110,-0.0811,0.9074,0.409,108.7646,5.7373,53.6499
1778683091.616325,10.90.50.196,2067960438,514111,-0.0593,0.8776,0.5762,81.9702,-35.0342,54.6875
1778683091.631632,10.90.50.196,2067967658,514112,0.2217,0.8312,0.6441,42.6636,-102.2949,67.8711
1778683091.632278,10.90.50.196,2067970313,514113,0.5857,0.7978,0.6641,7.1411,-146.9727,78.9185
1778683091.632278,10.90.50.196,2067973005,514114,0.831,0.7028,0.7049,-15.686,-138.3057,79.834
1778683091.63475,10.90.50.196,2067976503,514115,0.9707,0.611,0.8045,-26.001,-127.8687,78.186
1778683091.639059,10.90.50.196,2067980403,514116,0.9558,0.5566,0.9368,-35.4004,-112.915,81.2988
1778683091.641135,10.90.50.196,2067984401,514117,0.9128,0.4797,1.0059,-35.5225,-91.8579,78.3081
1778683091.644404,10.90.50.196,2067988540,514118,0.7854,0.3852,1.0196,-28.3203,-65.6128,81.0547
1778683091.684102,10.90.50.196,2067992516,514119,0.6362,0.3639,0.9729,-20.6909,-41.0156,90.5151
1778683091.684102,10.90.50.196,2067997013,514120,0.5171,0.3793,0.8665,-13.5498,-31.0059,100.5859
1778683091.684102,10.90.50.196,2068000539,514121,0.5417,0.4489,0.6917,-9.3384,-34.79,105.835
1778683091.684102,10.90.50.196,2068004413,514122,0.6001,0.5131,0.5281,-2.8076,-41.9312,105.5908
1778683091.684102,10.90.50.196,2068008492,514123,0.5769,0.5819,0.4236,4.2725,-31.4331,98.2056
1778683091.684102,10.90.50.196,2068012585,514124,0.4316,0.6383,0.4414,14.1602,-25.2686,90.9424
1778683091.684102,10.90.50.196,2068016507,514125,0.3554,0.7157,0.4837,17.1509,-29.48,85.8765
1778683091.684102,10.90.50.196,2068020464,514126,0.4006,0.7404,0.4776,13.6719,-36.9263,79.5288
1778683091.684102,10.90.50.196,2068024503,514127,0.4758,0.7228,0.5196,-0.3662,-48.0347,77.7588
1778683091.689142,10.90.50.196,2068029790,514128,0.5312,0.6752,0.5652,-11.8408,-47.8516,75.8057
1778683091.691222,10.90.50.196,2068032730,514129,0.5303,0.61,0.6409,-15.2588,-48.584,74.5239
1778683091.694727,10.90.50.196,2068036645,514130,0.5393,0.5617,0.6712,-16.9678,-48.2178,71.9604
1778683091.698059,10.90.50.196,2068040562,514131,0.5725,0.5331,0.6939,-15.0757,-50.9033,71.5332
1778683091.700143,10.90.50.196,2068044564,514132,0.5639,0.5185,0.6743,-14.9536,-48.1567,71.9604
1778683091.705896,10.90.50.196,2068048712,514133,0.54,0.5353,0.6409,-11.5967,-43.9453,74.2188
1778683091.707452,10.90.50.196,2068052655,514134,0.5019,0.5434,0.5962,-9.8267,-40.5273,77.1484
1778683091.713704,10.90.50.196,2068056560,514135,0.4812,0.5561,0.5652,-12.3901,-40.7104,79.7729
1778683091.716364,10.90.50.196,2068061958,514136,0.5044,0.5688,0.5393,-10.6201,-43.0298,78.9185
1778683091.727791,10.90.50.196,2068064924,514137,0.4878,0.5927,0.5174,-7.8735,-41.8701,76.355
1778683091.731079,10.90.50.196,2068070356,514138,0.478,0.6034,0.5186,-5.8594,-42.6636,74.8901
1778683091.731079,10.90.50.196,2068073255,514139,0.4607,0.5929,0.5506,-9.1553,-45.2271,74.7681
1778683091.731079,10.90.50.196,2068076644,514140,0.4739,0.5632,0.5591,-10.2539,-47.9126,74.3408
1778683091.740976,10.90.50.196,2068080773,514141,0.5444,0.5522,0.5616,-13.3667,-53.5889,75.4395
1778683091.743761,10.90.50.196,2068084700,514142,0.5381,0.5346,0.5887,-14.5264,-51.8799,75.9888
1778683091.748357,10.90.50.196,2068088719,514143,0.5542,0.5451,0.5813,-11.0474,-53.5889,75.9277
1778683091.751483,10.90.50.196,2068093991,514144,0.5444,0.5519,0.6011,-12.8784,-54.3213,77.2095
1778683091.757191,10.90.50.196,2068097105,514145,0.532,0.5834,0.5943,-15.7471,-55.9692,77.0264
1778683091.757191,10.90.50.196,2068100768,514146,0.5281,0.5839,0.6067,-12.085,-54.6265,75.3174
1778683091.757191,10.90.50.196,2068104765,514147,0.5222,0.5798,0.6136,-13.0615,-52.7954,71.7163
1778683091.771618,10.90.50.196,2068108853,514148,0.5241,0.5548,0.6223,-14.4653,-54.2603,70.4346
1778683091.780384,10.90.50.196,2068112741,514149,0.5447,0.5385,0.6133,-16.7236,-57.7393,71.106
1778683091.780384,10.90.50.196,2068116753,514150,0.5686,0.549,0.596,-19.2871,-55.1758,71.8384
1778683091.784147,10.90.50.196,2068120911,514151,0.5554,0.5641,0.5916,-19.2261,-48.1567,72.6929
1778683091.784147,10.90.50.196,2068125934,514152,0.5185,0.5653,0.5935,-22.0947,-45.166,74.0356
1778683091.787133,10.90.50.196,2068128830,514153,0.5068,0.5492,0.5994,-24.6582,-48.7671,73.0591
1778683091.789201,10.90.50.196,2068132846,514154,0.5232,0.5624,0.5769,-23.3765,-56.8848,70.0073
1778683091.79785,10.90.50.196,2068136851,514155,0.5368,0.5566,0.5808,-20.0806,-51.7578,66.5283
1778683091.79785,10.90.50.196,2068140863,514156,0.5422,0.5729,0.5889,-19.8364,-49.6826,66.1011
1778683091.80272,10.90.50.196,2068144917,514157,0.5136,0.5763,0.6199,-25.1465,-52.124,67.4438
1778683091.804677,10.90.50.196,2068148947,514158,0.5229,0.5644,0.6182,-26.6113,-52.002,67.4438
1778683091.807492,10.90.50.196,2068152972,514159,0.5217,0.568,0.6179,-28.9307,-49.7437,68.3594
1778683091.814178,10.90.50.196,2068157912,514160,0.5349,0.5719,0.5955,-29.9683,-48.645,67.5659
1778683091.81634,10.90.50.196,2068160948,514161,0.5371,0.5522,0.5808,-33.5083,-52.5513,67.8101
1778683091.823538,10.90.50.196,2068165012,514162,0.5332,0.5527,0.5618,-36.0107,-56.5796,67.8711
1778683091.828115,10.90.50.196,2068168878,514163,0.5688,0.5688,0.5279,-33.7524,-51.8188,67.8711
1778683091.832138,10.90.50.196,2068173096,514164,0.4665,0.5632,0.5767,-35.5835,-50.1099,67.2607
1778683091.833679,10.90.50.196,2068176889,514165,0.4375,0.5361,0.573,-36.5601,-55.9692,66.2231
1778683091.83686,10.90.50.196,2068180947,514166,0.4939,0.5214,0.5564,-37.9639,-62.0117,66.7725
1778683091.840657,10.90.50.196,2068184929,514167,0.5058,0.5046,0.5725,-37.8418,-60.4858,67.8101
1778683091.845832,10.90.50.196,2068189892,514168,0.5271,0.5063,0.585,-34.1797,-58.5938,67.1387
1778683091.848013,10.90.50.196,2068193078,514169,0.5361,0.5102,0.6109,-31.0669,-58.8379,66.9556
1778683091.848013,10.90.50.196,2068197099,514170,0.5491,0.5341,0.6294,-32.8369,-57.1289,70.5566
1778683091.862016,10.90.50.196,2068200942,514171,0.5866,0.5573,0.6255,-34.1797,-54.8706,71.8994
1778683091.864166,10.90.50.196,2068205057,514172,0.5547,0.5551,0.6363,-35.5225,-54.3213,71.228
1778683091.864166,10.90.50.196,2068209069,514173,0.5434,0.5697,0.6321,-35.8276,-58.2275,69.397
1778683091.864166,10.90.50.196,2068212988,514174,0.5149,0.5656,0.6389,-36.0107,-53.2227,66.1011
1778683091.878664,10.90.50.196,2068217014,514175,0.5246,0.5551,0.6189,-40.8936,-54.2603,66.3452
1778683091.886755,10.90.50.196,2068221978,514176,0.551,0.5422,0.5882,-45.3491,-59.082,68.3594
1778683091.886822,10.90.50.196,2068225253,514177,0.5398,0.5204,0.5779,-46.875,-54.9316,68.8477
1778683091.886822,10.90.50.196,2068229171,514178,0.5437,0.509,0.5713,-45.7153,-52.8564,69.0308
1778683091.889416,10.90.50.196,2068233170,514179,0.5044,0.5138,0.5757,-43.5181,-54.2603,67.627
1778683091.895193,10.90.50.196,2068237140,514180,0.4997,0.5033,0.5657,-42.4194,-58.4106,66.4673
1778683091.897886,10.90.50.196,2068241087,514181,0.4997,0.4899,0.5718,-43.6401,-63.7207,67.4438
1778683091.897886,10.90.50.196,2068245241,514182,0.5178,0.4836,0.5572,-42.7856,-61.8896,68.4204
1778683091.90701,10.90.50.196,2068249235,514183,0.4524,0.4862,0.5598,-44.5557,-63.5986,72.6318
1778683091.90701,10.90.50.196,2068254251,514184,0.4624,0.4521,0.5774,-42.9688,-63.2935,75.2563
1778683091.913904,10.90.50.196,2068257428,514185,0.4875,0.4565,0.6021,-40.0391,-69.7021,75.8667
1778683091.91629,10.90.50.196,2068261171,514186,0.5412,0.4569,0.6177,-33.5693,-68.7866,73.7305
1778683091.929997,10.90.50.196,2068265238,514187,0.5788,0.486,0.6177,-30.7007,-73.9136,75.0122
1778683091.929997,10.90.50.196,2068269307,514188,0.5525,0.4926,0.6277,-30.5786,-69.0308,77.4536
1778683091.929997,10.90.50.196,2068274778,514189,0.5708,0.5158,0.6265,-31.0059,-65.3687,79.834
1778683091.929997,10.90.50.196,2068278135,514190,0.5339,0.5087,0.6328,-33.3862,-65.6738,81.2378
1778683091.929997,10.90.50.196,2068281258,514191,0.4834,0.4674,0.6643,-34.729,-61.8896,80.9937
1778683091.941097,10.90.50.196,2068286183,514192,0.4992,0.5019,0.6553,-32.7148,-69.0308,82.6416
1778683091.945887,10.90.50.196,2068289224,514193,0.5398,0.5133,0.597,-33.6304,-66.4062,82.7026
1778683091.948511,10.90.50.196,2068293272,514194,0.573,0.5063,0.5525,-39.5508,-68.2983,86.9141
1778683091.948511,10.90.50.196,2068297255,514195,0.5261,0.4775,0.5706,-41.5039,-62.9883,87.1582
1778683091.962065,10.90.50.196,2068301281,514196,0.4814,0.4562,0.595,-35.0952,-61.0352,82.1533
1778683091.975801,10.90.50.196,2068305393,514197,0.4905,0.4543,0.6255,-26.3672,-69.7632,80.5054
1778683091.977468,10.90.50.196,2068309393,514198,0.5019,0.4245,0.6499,-27.0386,-74.646,82.5806
1778683091.977468,10.90.50.196,2068313267,514199,0.5578,0.4213,0.6721,-25.3906,-80.4443,84.8389
1778683091.980084,10.90.50.196,2068318915,514200,0.5691,0.4086,0.6863,-23.1323,-75.2563,87.0361
1778683091.980496,10.90.50.196,2068322026,514201,0.5945,0.4233,0.6724,-20.6299,-69.7632,90.7593
1778683091.980496,10.90.50.196,2068325356,514202,0.6574,0.4726,0.6331,-16.7847,-71.7163,91.8579
1778683091.980496,10.90.50.196,2068329352,514203,0.572,0.4508,0.6668,-11.3525,-69.519,89.0503
1778683091.990163,10.90.50.196,2068333354,514204,0.5337,0.4557,0.6756,-10.8032,-61.8286,88.9893
1778683091.998395,10.90.50.196,2068337306,514205,0.5581,0.4704,0.6577,-15.2588,-63.9648,94.2993
1778683091.999558,10.90.50.196,2068341392,514206,0.5761,0.4821,0.6272,-13.1226,-65.5518,95.0928
1778683092.00171,10.90.50.196,2068345368,514207,0.5542,0.4374,0.6079,-12.146,-67.1387,93.1396
1778683092.006258,10.90.50.196,2068350532,514208,0.5534,0.4093,0.6001,-10.376,-73.9136,95.9473
1778683092.008074,10.90.50.196,2068353557,514209,0.4966,0.38,0.5979,-7.2021,-66.1011,98.2666
1778683092.013332,10.90.50.196,2068357500,514210,0.5422,0.4123,0.5718,-3.54,-70.8008,100.769
1778683092.015562,10.90.50.196,2068361479,514211,0.5346,0.4142,0.5533,2.1973,-71.0449,101.8066
1778683092.021374,10.90.50.196,2068365443,514212,0.5241,0.4213,0.542,3.479,-72.998,105.2856
1778683092.023993,10.90.50.196,2068369433,514213,0.5156,0.4345,0.563,4.7607,-77.0264,109.314
1778683092.040978,10.90.50.196,2068373501,514214,0.4822,0.4499,0.5962,8.4839,-80.7495,111.4502
1778683092.040978,10.90.50.196,2068377683,514215,0.5261,0.4616,0.5982,10.376,-86.3037,111.6943
1778683092.040978,10.90.50.196,2068382453,514216,0.5832,0.4723,0.6043,10.1929,-91.7969,112.9761
1778683092.040978,10.90.50.196,2068385608,514217,0.5969,0.4645,0.6087,10.8643,-93.689,114.3188
1778683092.045943,10.90.50.196,2068389601,514218,0.6577,0.4565,0.6023,10.437,-97.5952,116.6992
1778683092.050663,10.90.50.196,2068393554,514219,0.6621,0.4425,0.6209,10.3149,-97.8394,117.0044
1778683092.050663,10.90.50.196,2068397565,514220,0.6352,0.4474,0.6475,11.6577,-89.3555,119.2017
1778683092.057515,10.90.50.196,2068401562,514221,0.6164,0.3737,0.7115,8.1787,-89.1724,119.0186
1778683092.064345,10.90.50.196,2068405555,514222,0.677,0.3168,0.7503,17.5781,-97.0459,116.2109
1778683092.073797,10.90.50.196,2068409668,514223,0.7219,0.2961,0.7093,29.2358,-90.1489,114.2578
1778683092.093619,10.90.50.196,2068414671,514224,0.7273,0.2709,0.7329,40.4053,-85.3271,117.4316
1778683092.093619,10.90.50.196,2068417675,514225,0.5532,0.3171,0.7906,48.7671,-74.7681,125.9766
1778683092.093619,10.90.50.196,2068421631,514226,0.2456,0.4333,0.9156,49.8047,-77.2095,137.6953
1778683092.09656,10.90.50.196,2068425610,514227,0.2439,0.5622,0.918,42.9077,-97.5952,144.6533
1778683092.104935,10.90.50.196,2068429608,514228,0.6089,0.6007,0.7537,33.4473,-134.4604,139.8315
1778683092.104935,10.90.50.196,2068433739,514229,0.8532,0.5451,0.6072,31.7383,-138.4277,134.4604
1778683092.105941,10.90.50.196,2068437667,514230,0.8686,0.4865,0.6138,41.0156,-122.8638,133.667
1778683092.105941,10.90.50.196,2068441627,514231,0.6955,0.434,0.7852,44.8608,-112.1826,134.5825
1778683092.105941,10.90.50.196,2068446239,514232,0.5327,0.4313,0.898,49.7437,-100.1587,137.5732
1778683092.110482,10.90.50.196,2068449761,514233,0.5788,0.4777,0.8802,45.4102,-110.2905,145.4468
1778683092.112101,10.90.50.196,2068453771,514234,0.6494,0.4906,0.8579,37.6587,-119.2627,152.0386
1778683092.114638,10.90.50.196,2068457751,514235,0.7019,0.4921,0.8106,38.5742,-118.7134,153.5645
1778683092.124359,10.90.50.196,2068461750,514236,0.7336,0.4533,0.8267,39.978,-123.291,156.25
1778683092.124359,10.90.50.196,2068465773,514237,0.7629,0.4159,0.8645,41.0156,-121.7041,159.4238
1778683092.124359,10.90.50.196,2068469769,514238,0.8022,0.3903,0.8943,44.2505,-115.1123,164.3677
1778683092.136174,10.90.50.196,2068473804,514239,0.8489,0.352,0.9207,47.6685,-106.2012,170.2881
1778683092.138324,10.90.50.196,2068480756,514240,0.8894,0.3429,0.9512,50.9033,-94.0552,177.9175
1778683092.141443,10.90.50.196,2068484327,514241,0.8437,0.3569,1.0369,54.8706,-73.4253,187.2559
1778683092.141443,10.90.50.196,2068487261,514242,0.728,0.4003,1.1243,63.1714,-46.7529,199.707
1778683092.141443,10.90.50.196,2068490246,514243,0.5884,0.5004,1.209,65.6738,-30.3345,213.1958
1778683092.141443,10.90.50.196,2068493765,514244,0.4692,0.5964,1.2864,64.1479,-31.8604,224.1821
1778683092.154676,10.90.50.196,2068497786,514245,0.3965,0.6606,1.3394,57.8613,-40.1001,230.6519
1778683092.157374,10.90.50.196,2068501926,514246,0.3442,0.6547,1.3741,49.6826,-54.4434,235.5957
1778683092.157374,10.90.50.196,2068505929,514247,0.3474,0.6427,1.3799,42.8467,-74.7681,239.9292
1778683092.157374,10.90.50.196,2068509927,514248,0.2995,0.6064,1.3767,37.2314,-82.9468,244.873
1778683092.173722,10.90.50.196,2068514838,514249,0.3244,0.6215,1.3345,38.6963,-95.2148,252.5024
1778683092.178331,10.90.50.196,2068518003,514250,0.2615,0.6242,1.2906,48.2788,-99.9756,262.5122
1778683092.182328,10.90.50.196,2068521927,514251,0.1577,0.6325,1.2273,57.4951,-104.4922,273.6816
1778683092.183359,10.90.50.196,2068525945,514252,0.1587,0.6708,1.1277,61.7065,-116.8823,287.9639
1778683092.189735,10.90.50.196,2068529867,514253,0.1421,0.693,1.0359,65.4297,-134.8267,301.8799
1778683092.1908,10.90.50.196,2068533859,514254,0.1155,0.7184,0.9829,65.0024,-155.2124,309.8145
1778683092.1908,10.90.50.196,2068537919,514255,0.0495,0.6903,0.9363,70.0073,-169.0674,310.9741
1778683092.1908,10.90.50.196,2068542040,514256,0.112,0.6508,0.8933,65.1245,-195.1904,314.0259
1778683092.205504,10.90.50.196,2068546689,514257,0.3259,0.5868,0.7737,53.6499,-233.2764,315.979
1778683092.205504,10.90.50.196,2068549911,514258,0.54,0.5094,0.6407,50.1709,-280.5786,313.0493
1778683092.207935,10.90.50.196,2068554042,514259,0.7593,0.4535,0.5115,66.5894,-324.0967,304.0771
1778683092.214483,10.90.50.196,2068558012,514260,1.1333,0.487,0.347,88.623,-372.1313,293.457
1778683092.218533,10.90.50.196,2068562042,514261,1.5666,0.5695,0.2412,108.6426,-428.1006,284.3018
1778683092.222669,10.90.50.196,2068565964,514262,2.0171,0.6437,0.1844,140.3809,-461.2427,276.7334
1778683092.224953,10.90.50.196,2068569961,514263,2.4309,0.7753,0.2574,170.0439,-467.9565,269.043
1778683092.233594,10.90.50.196,2068574064,514264,2.6841,0.9555,0.3521,182.1899,-413.269,268.0664
1778683092.233594,10.90.50.196,2068580414,514265,2.3318,1.0575,0.7588,162.5977,-360.4736,275.6958
1778683092.240926,10.90.50.196,2068584663,514266,2.0547,1.1444,0.968,135.1318,-322.2046,276.9165
1778683092.240926,10.90.50.196,2068587593,514267,1.2278,0.9631,1.1802,107.7881,-320.4346,282.5317
1778683092.240926,10.90.50.196,2068590504,514268,1.7278,0.8896,1.1748,76.2939,-379.0894,267.7002
1778683092.252816,10.90.50.196,2068594185,514269,1.7116,0.7968,1.1538,89.9658,-367.3706,252.0142
1778683092.254682,10.90.50.196,2068598100,514270,1.604,0.6183,1.1331,95.8862,-335.8154,235.6567
1778683092.258201,10.90.50.196,2068602040,514271,1.2646,0.549,1.1665,96.2524,-298.5229,230.5298
1778683092.258201,10.90.50.196,2068606232,514272,1.0954,0.4794,1.1602,99.7925,-268.1885,226.6235
1778683092.280592,10.90.50.196,2068610981,514273,0.7737,0.433,1.1634,100.708,-233.0322,225.708
1778683092.280592,10.90.50.196,2068614179,514274,0.3772,0.3915,1.2207,96.8018,-189.5142,222.4121
1778683092.280592,10.90.50.196,2068618257,514275,-0.0542,0.3344,1.2776,93.5059,-151.3062,216.6748
1778683092.280592,10.90.50.196,2068622143,514276,-0.4077,0.3022,1.2566,97.7783,-131.958,211.6699
1778683092.280592,10.90.50.196,2068626306,514277,-0.5354,0.298,1.1199,102.478,-122.9248,204.7119
1778683092.280592,10.90.50.196,2068630112,514278,-0.6504,0.2558,0.9864,104.3701,-102.7222,201.2939
1778683092.290199,10.90.50.196,2068634163,514279,-0.6475,0.2077,0.7825,115.5396,-85.5103,195.1904
1778683092.294473,10.90.50.196,2068638142,514280,-0.4571,0.2445,0.5403,113.5864,-123.4741,192.1997
1778683092.299244,10.90.50.196,2068643071,514281,-0.2207,0.2343,0.3184,83.252,-205.0171,196.7773
1778683092.303118,10.90.50.196,2068646303,514282,0.1335,0.2416,0.0691,62.0728,-274.353,198.5474
1778683092.30712,10.90.50.196,2068650268,514283,0.6291,0.2658,-0.2578,59.8145,-326.4771,195.6787
1778683092.307877,10.90.50.196,2068654194,514284,1.4643,0.2109,-0.8008,41.5039,-381.958,190.1855
1778683092.307877,10.90.50.196,2068658315,514285,2.2646,0.1847,-1.331,30.0903,-468.9941,177.7954
1778683092.321373,10.90.50.196,2068662247,514286,2.8628,0.2809,-1.5163,56.8848,-551.8799,161.1328
1778683092.323397,10.90.50.196,2068666201,514287,2.9992,0.7355,-1.1001,136.6577,-444.9463,145.9961
1778683092.324356,10.90.50.196,2068670338,514288,2.6953,1.5871,-0.2783,309.6924,-27.5879,110.9619
1778683092.334602,10.90.50.196,2068675652,514289,2.0234,1.3149,0.2112,554.1992,449.585,50.5371
1778683092.337635,10.90.50.196,2068678672,514290,0.4448,1.1896,1.4241,555.9692,480.1025,69.0918
1778683092.340581,10.90.50.196,2068684255,514291,-0.4759,1.3935,2.1609,315.6738,248.1079,170.0439
1778683092.340581,10.90.50.196,2068687187,514292,-1.0962,1.5058,2.513,181.0303,150.0244,257.9956
1778683092.340581,10.90.50.196,2068690429,514293,-1.2708,1.633,2.5677,95.6421,120.9717,235.1074
1778683092.340581,10.90.50.196,2068694451,514294,-0.8042,1.4465,2.2276,45.5322,68.6035,195.2515
1778683092.35719,10.90.50.196,2068698378,514295,0.0329,1.3744,1.6016,-68.6646,-38.0859,204.1626
1778683092.358869,10.90.50.196,2068702328,514296,0.5691,1.2663,1.0059,-170.5322,-37.7197,202.7588
1778683092.362983,10.90.50.196,2068707251,514297,0.8423,1.0717,0.6038,-181.8848,22.7661,152.0996
1778683092.362983,10.90.50.196,2068710451,514298,0.6489,1.0165,0.313,-158.1421,118.4692,70.8008
1778683092.385008,10.90.50.196,2068714364,514299,0.3137,0.8886,0.1182,-108.5205,194.519,-18.4937
1778683092.385008,10.90.50.196,2068718459,514300,0.104,0.7104,0.0745,-95.0317,199.3408,-73.6084
1778683092.387001,10.90.50.196,2068722467,514301,-0.0274,0.6454,-0.0244,-117.3706,184.2651,-90.9424
1778683092.387001,10.90.50.196,2068726396,514302,-0.055,0.569,-0.0996,-132.3242,158.5693,-99.3652
1778683092.389039,10.90.50.196,2068730385,514303,-0.0115,0.4604,-0.1753,-150.6348,130.5542,-106.8115
1778683092.391247,10.90.50.196,2068734504,514304,0.0969,0.349,-0.2234,-161.499,103.2715,-114.502
1778683092.396686,10.90.50.196,2068739836,514305,0.2148,0.2685,-0.2412,-157.6538,83.0078,-128.54
1778683092.398849,10.90.50.196,2068742895,514306,0.324,0.2157,-0.1938,-138.9771,75.0122,-148.6206
1778683092.399948,10.90.50.196,2068746501,514307,0.27,0.2035,-0.1616,-114.8071,76.416,-164.1235
1778683092.406036,10.90.50.196,2068750496,514308,0.5085,0.4418,-0.1799,-111.5723,92.5903,-166.3208
1778683092.412413,10.90.50.196,2068754465,514309,0.4636,0.4108,0.0855,-126.5869,110.0464,-168.5181
1778683092.413589,10.90.50.196,2068758465,514310,0.4197,0.329,0.4539,-120.0562,102.417,-172.5464
1778683092.413589,10.90.50.196,2068762676,514311,0.4734,0.3066,0.659,-96.2524,90.3931,-187.6221
1778683092.429846,10.90.50.196,2068766612,514312,0.613,0.309,0.7823,-90.5151,75.5615,-193.2983
1778683092.429846,10.90.50.196,2068771833,514313,0.7793,0.3207,0.8416,-102.1118,70.1294,-185.1807
1778683092.43475,10.90.50.196,2068775243,514314,0.9262,0.3134,0.8465,-116.4551,85.3271,-174.2554
1778683092.437644,10.90.50.196,2068778626,514315,1.018,0.2687,0.8723,-117.4927,110.4736,-167.2363
1778683092.440225,10.90.50.196,2068782654,514316,0.9958,0.2421,0.9192,-111.6333,140.625,-158.4473
1778683092.440881,10.90.50.196,2068787373,514317,0.9319,0.2314,0.8828,-110.9009,169.7388,-150.8789
1778683092.447739,10.90.50.196,2068790554,514318,0.907,0.2868,0.7173,-118.5913,189.27,-134.8267
1778683092.450979,10.90.50.196,2068794697,514319,0.8076,0.3466,0.5281,-136.3525,210.083,-113.7695
1778683092.455928,10.90.50.196,2068798694,514320,0.667,0.3319,0.3699,-148.1323,225.769,-99.3042
1778683092.461581,10.90.50.196,2068803934,514321,0.5027,0.2763,0.272,-146.7896,228.5156,-90.4541
1778683092.463772,10.90.50.196,2068806922,514322,0.4155,0.2636,0.1436,-139.4653,222.0459,-90.8813
1778683092.465211,10.90.50.196,2068810677,514323,0.4258,0.3027,0.0179,-126.0986,205.7495,-92.7734
1778683092.475773,10.90.50.196,2068814775,514324,0.458,0.3124,-0.0505,-115.5396,189.0259,-94.9097
1778683092.479921,10.90.50.196,2068818803,514325,0.4475,0.3378,-0.1257,-106.7505,176.6968,-93.811
1778683092.479921,10.90.50.196,2068822742,514326,0.6282,0.4753,-0.26,-98.0225,156.7993,-91.1865
1778683092.479921,10.90.50.196,2068826754,514327,0.6069,0.55,-0.2392,-98.999,153.6255,-85.8765
1778683092.492392,10.90.50.196,2068830667,514328,0.7646,0.7187,-0.2463,-85.6323,130.4932,-87.8906
1778683092.496598,10.90.50.196,2068836392,514329,0.758,0.8786,-0.2058,-69.3359,130.188,-102.2949
1778683092.503089,10.90.50.196,2068839248,514330,0.7651,1.0739,-0.0381,-61.0352,124.2676,-110.8398
1778683092.503089,10.90.50.196,2068842793,514331,0.7849,1.2104,0.2537,-47.9126,89.9658,-104.6753
1778683092.505375,10.90.50.196,2068846711,514332,0.915,1.4389,0.378,-68.6646,71.7773,-104.8584
1778683092.507335,10.90.50.196,2068850777,514333,1.1365,1.5446,0.396,-96.9849,53.3447,-106.2012
1778683092.507335,10.90.50.196,2068854895,514334,1.3213,1.7345,0.3177,-119.9341,46.6309,-109.5581
1778683092.507335,10.90.50.196,2068858752,514335,1.4809,1.7384,0.2866,-143.9819,51.6968,-127.8076
1778683092.519373,10.90.50.196,2068862860,514336,1.5073,1.8053,0.2193,-158.9966,51.3916,-146.7896
1778683092.524439,10.90.50.196,2068868195,514337,1.5373,1.7848,0.149,-177.3682,51.2695,-167.7856
1778683092.524439,10.90.50.196,2068871255,514338,1.6584,1.8681,0.0293,-215.8813,40.5273,-172.0581
1778683092.524439,10.90.50.196,2068874895,514339,1.6782,1.7834,-0.0327,-257.9956,37.1704,-184.7534
1778683092.524439,10.90.50.196,2068878947,514340,1.7505,1.5712,-0.0774,-278.1982,30.5786,-206.9092
1778683092.539279,10.90.50.196,2068882827,514341,1.7058,1.3317,-0.0954,-300.7202,27.1606,-227.6001
1778683092.54462,10.90.50.196,2068887739,514342,1.7683,1.1449,-0.1352,-306.2134,21.8506,-248.1689
1778683092.547967,10.90.50.196,2068891349,514343,1.7859,0.9335,-0.1176,-305.6641,23.6816,-268.5547
1778683092.547967,10.90.50.196,2068894889,514344,1.8178,0.8344,-0.1057,-288.6963,15.686,-283.5083
1778683092.55779,10.90.50.196,2068900511,514345,1.7178,0.6986,-0.0603,-284.4849,29.1138,-289.1235
1778683092.560579,10.90.50.196,2068903591,514346,1.626,0.6088,0.0315,-276.7944,25.4517,-281.9214
1778683092.563673,10.90.50.196,2068906992,514347,1.6323,0.6762,-0.0049,-261.7188,13.2446,-276.062
1778683092.565825,10.90.50.196,2068910941,514348,1.6064,0.8268,-0.0752,-250.3662,6.0425,-267.2119
1778683092.574228,10.90.50.196,2068914974,514349,1.5537,0.9709,-0.1113,-247.8638,5.6152,-259.9487
1778683092.594519,10.90.50.196,2068918913,514350,1.4968,1.0439,-0.1467,-251.1597,4.1504,-256.897
1778683092.594519,10.90.50.196,2068922964,514351,1.4389,1.0727,-0.1914,-256.8359,-1.3428,-255.4321
1778683092.594519,10.90.50.196,2068927105,514352,1.3689,1.0592,-0.2319,-259.8877,-12.3291,-256.4087
1778683092.594519,10.90.50.196,2068932142,514353,1.3782,1.12,-0.2754,-262.5732,-25.0854,-252.4414
1778683092.59552,10.90.50.196,2068935037,514354,1.4053,1.1462,-0.2876,-265.625,-36.8042,-251.6479
1778683092.597886,10.90.50.196,2068939095,514355,1.4411,1.1718,-0.3049,-263.0005,-47.3022,-255.0049
1778683092.599905,10.90.50.196,2068943140,514356,1.4802,1.1935,-0.2978,-263.5498,-56.5796,-256.6528
1778683092.602923,10.90.50.196,2068947150,514357,1.4665,1.1496,-0.2756,-267.8223,-60.1196,-253.9062
1778683092.60794,10.90.50.196,2068951097,514358,1.4175,1.0402,-0.2488,-273.9258,-65.0635,-243.7134
1778683092.615116,10.90.50.196,2068955099,514359,1.487,1.1037,-0.3088,-290.6494,-73.2422,-221.7407
1778683092.616156,10.90.50.196,2068959031,514360,1.4858,1.0258,-0.3127,-291.748,-77.0874,-210.3882
1778683092.616156,10.90.50.196,2068964731,514361,1.5674,1.0837,-0.2793,-286.9873,-85.2051,-205.7495
1778683092.624935,10.90.50.196,2068967719,514362,1.6037,1.1098,-0.2395,-284.9121,-84.0454,-200.9888
1778683092.628479,10.90.50.196,2068971108,514363,1.6308,1.0612,-0.1721,-287.7808,-84.0454,-198.4253
1778683092.63179,10.90.50.196,2068975140,514364,1.6848,0.998,-0.1091,-290.3442,-85.9375,-195.0684
1778683092.632536,10.90.50.196,2068979169,514365,1.7317,0.9015,-0.0754,-290.7104,-84.4727,-192.1997
1778683092.640999,10.90.50.196,2068983217,514366,1.7605,0.7926,-0.084,-288.0859,-78.9185,-189.0869
1778683092.643047,10.90.50.196,2068987287,514367,1.7585,0.6982,-0.1159,-275.5127,-68.9087,-184.2651
1778683092.64915,10.90.50.196,2068992056,514368,1.7319,0.6845,-0.1692,-255.9204,-57.0679,-176.4526
1778683092.65268,10.90.50.196,2068997040,514369,1.6389,0.7204,-0.2092,-232.666,-43.5791,-167.4805
1778683092.655765,10.90.50.196,2068999999,514370,1.6054,0.7756,-0.2539,-214.8438,-37.9028,-158.6304
1778683092.664565,10.90.50.196,2069003265,514371,1.6101,0.7389,-0.28,-206.9702,-36.8652,-150.4517
1778683092.664565,10.90.50.196,2069007201,514372,1.6216,0.6032,-0.2785,-203.6133,-32.8369,-144.8975
1778683092.664565,10.90.50.196,2069011282,514373,1.5595,0.3944,-0.2585,-195.8618,-22.7051,-141.3574
1778683092.672555,10.90.50.196,2069015552,514374,1.2546,0.0082,-0.1277,-186.5234,-8.4839,-137.4512
1778683092.677018,10.90.50.196,2069019164,514375,1.1064,-0.1305,-0.0422,-209.5337,-12.3291,-132.2632
1778683092.690492,10.90.50.196,2069023338,514376,1.0632,-0.419,0.0125,-193.8477,-31.0669,-98.877
1778683092.690492,10.90.50.196,2069027274,514377,1.53,-0.4063,-0.3274,-112.1216,-102.6001,-108.5205
1778683092.690492,10.90.50.196,2069031429,514378,1.4736,-0.5614,-0.3796,-60.5469,-77.1484,-105.2856
1778683092.690492,10.90.50.196,2069035338,514379,1.395,-0.6121,-0.4599,-51.6968,-38.5132,-80.2002
1778683092.690492,10.90.50.196,2069039247,514380,1.2126,-0.5611,-0.4582,-41.3208,-7.6904,-48.1567
1778683092.690492,10.90.50.196,2069043247,514381,1.06,-0.4264,-0.4624,-22.0947,-0.9766,-28.3203
1778683092.690492,10.90.50.196,2069047364,514382,1.0971,-0.3682,-0.6103,-6.2866,-15.0757,-18.9209
1778683092.708715,10.90.50.196,2069051339,514383,1.1548,-0.2918,-0.7365,14.2212,-47.1191,-10.6812
1778683092.708715,10.90.50.196,2069055273,514384,1.2131,-0.1807,-0.8115,39.7949,-79.5288,-8.606
1778683092.708715,10.90.50.196,2069059412,514385,1.281,-0.0252,-0.914,61.4624,-110.5957,-5.4321
1778683092.708715,10.90.50.196,2069064075,514386,1.355,0.1139,-1.0066,79.895,-142.6392,0.1831
1778683092.723546,10.90.50.196,2069067480,514387,1.4106,0.2397,-1.0669,93.0176,-175.9644,7.2021
1778683092.725969,10.90.50.196,2069071420,514388,1.5063,0.3415,-1.1543,107.2998,-216.7969,11.4746
1778683092.725969,10.90.50.196,2069075438,514389,1.657,0.445,-1.1777,122.3755,-260.1929,17.1509
1778683092.725969,10.90.50.196,2069079379,514390,1.447,0.4235,-0.8152,135.5591,-270.0806,25.9399
1778683092.74069,10.90.50.196,2069083413,514391,0.9143,0.3202,-0.2634,156.1279,-157.6538,24.1699
1778683092.74069,10.90.50.196,2069087443,514392,0.7053,0.3866,-0.0144,172.6685,-41.9312,22.9492
1778683092.74069,10.90.50.196,2069092255,514393,0.6684,0.7067,0.2195,169.9219,-40.9546,40.9546
1778683092.74069,10.90.50.196,2069098337,514394,0.6435,0.9928,0.5655,171.6919,-78.7354,52.5513
1778683092.758081,10.90.50.196,2069101321,514395,0.6523,1.0617,0.8858,176.7578,-132.8125,52.2461
1778683092.758081,10.90.50.196,2069104339,514396,0.7051,0.9489,1.116,146.0571,-198.1201,54.3213
1778683092.758081,10.90.50.196,2069107539,514397,0.6601,0.8312,1.3047,101.8066,-252.7466,61.8896
1778683092.758081,10.90.50.196,2069111502,514398,0.477,0.6711,1.4964,68.4814,-246.6431,50.5981
1778683092.772531,10.90.50.196,2069115477,514399,0.2983,0.4792,1.6453,46.2646,-200.7446,27.771
1778683092.77691,10.90.50.196,2069119613,514400,0.1633,0.4364,1.6582,29.541,-163.0249,9.3994
1778683092.792033,10.90.50.196,2069123560,514401,0.1199,0.4533,1.522,39.2456,-131.6528,-6.7749
1778683092.792033,10.90.50.196,2069127478,514402,0.478,0.6271,1.0281,66.04,-129.5166,-15.1978
1778683092.792033,10.90.50.196,2069131624,514403,0.9084,0.86,0.5618,83.1909,-147.8882,-0.8545
1778683092.792033,10.90.50.196,2069135523,514404,1.018,0.8471,0.2793,89.5386,-129.1504,10.0098
1778683092.792033,10.90.50.196,2069139608,514405,1.1672,0.9923,0.1909,69.9463,-108.7646,34.9121
1778683092.792033,10.90.50.196,2069143671,514406,0.9853,1.0138,0.3826,67.3218,-90.1489,70.8008
1778683092.792033,10.90.50.196,2069147712,514407,0.9968,0.8891,0.4932,54.3823,-125.8545,89.2944
1778683092.807928,10.90.50.196,2069151556,514408,1.0928,0.8454,0.6038,-21.1792,-153.7476,119.2017
1778683092.808542,10.90.50.196,2069155730,514409,1.2412,0.8705,0.6182,-53.833,-181.3354,146.0571
1778683092.808542,10.90.50.196,2069159559,514410,1.4543,0.8586,0.5484,-22.8882,-183.2275,137.2681
1778683092.808542,10.90.50.196,2069164536,514411,1.49,0.7873,0.6223,0.4272,-156.6772,121.6431
1778683092.823934,10.90.50.196,2069167773,514412,1.3637,0.7441,0.7725,16.1133,-111.2061,112.1216
1778683092.827564,10.90.50.196,2069171760,514413,1.157,0.7641,0.8946,24.7192,-65.4907,105.896
1778683092.827564,10.90.50.196,2069175751,514414,0.9726,0.7841,0.9575,29.3579,-39.3066,97.229
1778683092.836346,10.90.50.196,2069179764,514415,0.8086,0.7497,1.0003,17.9443,-27.2827,90.7593
1778683092.840989,10.90.50.196,2069183793,514416,0.707,0.6488,1.0015,-10.7422,-29.541,87.8906
1778683092.847189,10.90.50.196,2069187645,514417,0.7019,0.5072,0.9427,-36.7432,-37.5366,84.4116
1778683092.848024,10.90.50.196,2069191741,514418,0.6936,0.3417,0.8535,-49.0723,-41.748,77.6978
1778683092.869729,10.90.50.196,2069199196,514419,0.6723,0.2026,0.7451,-43.8843,-40.2832,68.9697
1778683092.869729,10.90.50.196,2069203795,514420,0.615,0.2045,0.4854,-6.0425,-37.4146,57.8613
1778683092.869729,10.90.50.196,2069207840,514421,0.5281,0.2873,0.4348,18.1274,-32.7148,58.2275
1778683092.871745,10.90.50.196,2069211722,514422,0.4905,0.3852,0.3968,34.4849,-31.3721,59.9365
1778683092.874617,10.90.50.196,2069215908,514423,0.4526,0.485,0.3636,48.3398,-34.4849,61.4014
1778683092.874617,10.90.50.196,2069219849,514424,0.4275,0.5583,0.3533,51.8188,-41.9922,65.4907
1778683092.892297,10.90.50.196,2069223816,514425,0.4162,0.6269,0.3474,47.9736,-56.4575,70.4956
1778683092.893939,10.90.50.196,2069227928,514426,0.468,0.6747,0.3499,42.4805,-71.5942,70.4346
1778683092.894191,10.90.50.196,2069231873,514427,0.54,0.686,0.3675,36.438,-82.3975,67.0166
1778683092.894191,10.90.50.196,2069235791,514428,0.5825,0.6615,0.4151,35.2783,-88.501,60.0586
1778683092.896205,10.90.50.196,2069239947,514429,0.5986,0.6383,0.4773,34.3018,-89.7217,55.9082
1778683092.898257,10.90.50.196,2069243911,514430,0.6657,0.6515,0.4866,30.0903,-93.3228,55.9082
1778683092.904072,10.90.50.196,2069247927,514431,0.7287,0.6361,0.5218,32.2876,-93.9331,55.3589
1778683092.909051,10.90.50.196,2069251868,514432,0.737,0.6142,0.5799,30.8838,-88.1958,55.7861
1778683092.909051,10.90.50.196,2069255836,514433,0.6914,0.6178,0.6241,27.5879,-79.2847,57.7393
1778683092.909051,10.90.50.196,2069259848,514434,0.6389,0.6327,0.637,26.4282,-68.9697,56.7627
1778683092.921206,10.90.50.196,2069264809,514435,0.6213,0.6376,0.6275,22.1558,-64.8804,55.7251
1778683092.924547,10.90.50.196,2069267999,514436,0.6235,0.6423,0.5943,14.2822,-64.9414,54.8706
1778683092.926285,10.90.50.196,2069272038,514437,0.6416,0.6283,0.5589,9.2773,-66.5283,51.2085
1778683092.93342,10.90.50.196,2069276052,514438,0.6211,0.5944,0.554,8.1177,-64.4531,47.1191
1778683092.936254,10.90.50.196,2069280010,514439,0.6113,0.5705,0.5574,7.7515,-62.0117,43.0298
1778683092.9409,10.90.50.196,2069283950,514440,0.6037,0.5478,0.5152,5.0049,-57.0068,40.0391
1778683092.946554,10.90.50.196,2069287908,514441,0.5979,0.538,0.4886,1.77,-57.1899,41.3208
1778683092.947592,10.90.50.196,2069292029,514442,0.573,0.5278,0.5039,1.1597,-58.2886,43.335
1778683092.955743,10.90.50.196,2069299286,514443,0.5427,0.5238,0.5281,1.9531,-58.3496,43.5791
1778683092.959068,10.90.50.196,2069302277,514444,0.5476,0.5356,0.5437,0.4272,-61.5845,44.8608
1778683092.961798,10.90.50.196,2069305307,514445,0.5752,0.5492,0.5579,1.709,-66.4673,44.7388
1778683092.965254,10.90.50.196,2069308264,514446,0.6096,0.5341,0.5655,0.061,-69.0918,43.0298
1778683092.966888,10.90.50.196,2069311998,514447,0.6428,0.5278,0.5857,-4.3945,-75.2563,43.7622
1778683092.972608,10.90.50.196,2069316063,514448,0.7004,0.5187,0.5965,-8.3618,-77.6978,44.1284
1778683092.974821,10.90.50.196,2069319991,514449,0.7026,0.4994,0.6316,-9.2773,-72.3877,43.0908
1778683092.990444,10.90.50.196,2069324042,514450,0.6916,0.4982,0.6638,-8.4229,-65.3076,42.8467
1778683092.990444,10.90.50.196,2069328191,514451,0.6657,0.5192,0.6768,-8.4229,-59.1431,42.7246
1778683092.990444,10.90.50.196,2069332175,514452,0.6382,0.5263,0.6712,-5.5542,-55.8472,41.9312
1778683092.990444,10.90.50.196,2069336084,514453,0.6357,0.5412,0.6365,-4.6997,-54.3823,40.6494
1778683092.990444,10.90.50.196,2069340189,514454,0.7026,0.5339,0.595,-4.4556,-53.2837,39.978
1778683093.005987,10.90.50.196,2069344139,514455,0.6081,0.4987,0.5872,-3.0518,-46.4478,41.748
1778683093.005987,10.90.50.196,2069348150,514456,0.581,0.4955,0.5601,-6.5918,-41.3818,45.0439
1778683093.008533,10.90.50.196,2069352100,514457,0.5503,0.4848,0.5249,-7.1411,-44.9829,49.9268
1778683093.012766,10.90.50.196,2069356099,514458,0.5505,0.4821,0.4873,-5.6763,-48.1567,53.833
1778683093.013692,10.90.50.196,2069360142,514459,0.5715,0.5102,0.4517,-0.6104,-51.0864,55.9082
1778683093.021562,10.90.50.196,2069365173,514460,0.5622,0.508,0.4527,5.0049,-51.4526,56.8237
1778683093.024346,10.90.50.196,2069368373,514461,0.5293,0.5444,0.4756,4.1504,-52.124,60.4858
1778683093.027935,10.90.50.196,2069372181,514462,0.5386,0.5822,0.4846,4.8828,-54.9927,61.6455
1778683093.033942,10.90.50.196,2069376323,514463,0.5364,0.5693,0.5086,6.4087,-57.9224,60.5469
1778683093.036118,10.90.50.196,2069380160,514464,0.5354,0.5812,0.5183,4.3945,-60.1196,62.5
1778683093.040502,10.90.50.196,2069384222,514465,0.5681,0.6176,0.5103,3.2349,-61.6455,63.5376
1778683093.047986,10.90.50.196,2069388257,514466,0.5808,0.6171,0.5193,2.0752,-63.4155,62.8052
1778683093.047986,10.90.50.196,2069392262,514467,0.5876,0.6029,0.5327,-1.0986,-65.0635,61.9507
1778683093.055915,10.90.50.196,2069396873,514468,0.6037,0.59,0.5254,-2.1973,-63.4155,61.1572
1778683093.057748,10.90.50.196,2069401881,514469,0.6089,0.5903,0.5327,-2.7466,-62.439,59.3262
1778683093.057748,10.90.50.196,2069404876,514470,0.612,0.5746,0.5484,-2.8076,-60.0586,58.1055
1778683093.064945,10.90.50.196,2069408419,514471,0.5964,0.5595,0.5581,-4.0283,-59.1431,57.9224
1778683093.067986,10.90.50.196,2069412379,514472,0.6177,0.559,0.5423,-4.0894,-58.7769,57.0679
1778683093.072645,10.90.50.196,2069416394,514473,0.6164,0.5434,0.5432,-3.479,-56.3965,57.7393
1778683093.076672,10.90.50.196,2069420317,514474,0.6164,0.5644,0.5266,-4.3945,-54.7485,58.8989
1778683093.080643,10.90.50.196,2069424279,514475,0.6186,0.5724,0.5188,-4.3335,-53.7109,59.2651
1778683093.097114,10.90.50.196,2069429386,514476,0.6057,0.5644,0.5122,-4.4556,-51.9409,59.2041
1778683093.097114,10.90.50.196,2069432420,514477,0.5986,0.581,0.4947,-5.3101,-50.354,60.1196
1778683093.097114,10.90.50.196,2069436488,514478,0.5715,0.5922,0.4995,-6.897,-48.584,60.4248
1778683093.097114,10.90.50.196,2069440365,514479,0.5657,0.5949,0.5008,-8.3618,-50.5981,58.8379
1778683093.097114,10.90.50.196,2069444484,514480,0.5686,0.6003,0.5017,-10.1929,-53.5278,57.1289
1778683093.108014,10.90.50.196,2069448429,514481,0.574,0.5981,0.4966,-10.6812,-55.6641,55.2368
1778683093.109847,10.90.50.196,2069452540,514482,0.5691,0.5907,0.5037,-12.4512,-57.4951,53.2837
1778683093.109847,10.90.50.196,2069456540,514483,0.5732,0.5854,0.4959,-13.7939,-60.0586,52.124
1778683093.109847,10.90.50.196,2069461496,514484,0.5896,0.5675,0.4951,-14.3433,-62.3779,51.1475
1778683093.121448,10.90.50.196,2069464482,514485,0.6003,0.5678,0.4951,-14.4653,-59.9976,51.0254
1778683093.124268,10.90.50.196,2069468416,514486,0.6098,0.5688,0.4976,-14.5264,-58.96,51.2085
1778683093.124268,10.90.50.196,2069472525,514487,0.5845,0.5724,0.5286,-16.6016,-58.8989,52.2461
1778683093.124268,10.90.50.196,2069476476,514488,0.5871,0.5653,0.5445,-17.395,-61.4014,52.7954
1778683093.136634,10.90.50.196,2069480455,514489,0.6067,0.5651,0.5425,-18.4326,-62.9883,53.5278
1778683093.141146,10.90.50.196,2069484501,514490,0.6145,0.5524,0.5406,-18.9209,-62.3169,53.833
1778683093.141146,10.90.50.196,2069488450,514491,0.6233,0.55,0.5493,-18.6768,-60.73,54.2603
1778683093.151603,10.90.50.196,2069493530,514492,0.6147,0.5419,0.542,-16.7236,-57.0679,54.7485
1778683093.154064,10.90.50.196,2069496961,514493,0.6137,0.5414,0.5471,-16.7236,-56.2744,55.481
1778683093.157465,10.90.50.196,2069501834,514494,0.6116,0.5299,0.5591,-15.0146,-53.6499,56.2134
1778683093.168499,10.90.50.196,2069505342,514495,0.6169,0.5361,0.5457,-12.3291,-52.4902,56.3965
1778683093.168499,10.90.50.196,2069508583,514496,0.6267,0.5358,0.5347,-10.9253,-50.9644,56.8848
1778683093.169304,10.90.50.196,2069512581,514497,0.6079,0.5326,0.5323,-10.3149,-48.4619,57.9224
1778683093.17261,10.90.50.196,2069516662,514498,0.5854,0.54,0.5337,-8.4839,-46.875,58.4106
1778683093.177555,10.90.50.196,2069520731,514499,0.5852,0.5392,0.5406,-5.9814,-47.3633,58.5938
1778683093.185174,10.90.50.196,2069525802,514500,0.5896,0.5387,0.5362,-4.4556,-47.9736,59.021
1778683093.207371,10.90.50.196,2069528872,514501,0.6091,0.5424,0.5208,-2.8687,-48.0957,60.0586
1778683093.20791,10.90.50.196,2069532581,514502,0.5998,0.557,0.5176,-3.1128,-46.0815,61.4624
1778683093.20796,10.90.50.196,2069536608,514503,0.5874,0.5651,0.5232,-1.4648,-44.8608,61.8896
1778683093.20796,10.90.50.196,2069540719,514504,0.5849,0.5732,0.5186,-2.2583,-44.6777,62.1338
1778683093.20796,10.90.50.196,2069544614,514505,0.5771,0.5805,0.5205,-2.8687,-45.2881,62.9272
1778683093.20909,10.90.50.196,2069548631,514506,0.5857,0.5805,0.5135,-4.0894,-45.7764,63.4155
1778683093.20909,10.90.50.196,2069552630,514507,0.5957,0.5805,0.5074,-6.5308,-45.4102,63.4155
1778683093.20909,10.90.50.196,2069558391,514508,0.5864,0.5839,0.5044,-5.127,-43.9453,63.0493
1778683093.218149,10.90.50.196,2069561440,514509,0.5796,0.5888,0.5074,-5.5542,-43.2739,62.6221
1778683093.220915,10.90.50.196,2069564853,514510,0.574,0.5859,0.5064,-7.6904,-43.5181,62.3779
1778683093.224497,10.90.50.196,2069568839,514511,0.5737,0.581,0.512,-8.667,-44.3726,61.6455
1778683093.229659,10.90.50.196,2069572775,514512,0.5827,0.5776,0.5054,-8.8501,-45.2271,60.8521
1778683093.232637,10.90.50.196,2069576712,514513,0.5813,0.5776,0.5093,-9.3994,-45.4102,60.4858
1778683093.233663,10.90.50.196,2069580738,514514,0.5788,0.5717,0.5074,-9.3384,-45.5933,60.0586
1778683093.24123,10.90.50.196,2069584742,514515,0.5942,0.5715,0.5049,-9.7656,-46.936,60.2417
1778683093.24687,10.90.50.196,2069590106,514516,0.5842,0.5649,0.5157,-10.6812,-46.6309,60.73
1778683093.248867,10.90.50.196,2069593111,514517,0.5945,0.5739,0.5154,-10.1318,-46.875,60.6689
1778683093.255916,10.90.50.196,2069596775,514518,0.5823,0.5778,0.5176,-9.0942,-46.3257,59.8145
1778683093.259733,10.90.50.196,2069600826,514519,0.5827,0.5817,0.5235,-9.2773,-46.3257,58.8379
1778683093.262731,10.90.50.196,2069606332,514520,0.5852,0.5805,0.5244,-10.1929,-46.5088,57.9224
1778683093.263784,10.90.50.196,2069609363,514521,0.5903,0.5751,0.5235,-11.4746,-47.3022,58.3496
1778683093.263784,10.90.50.196,2069612928,514522,0.5815,0.5729,0.5213,-14.0381,-47.8516,59.5093
1778683093.27359,10.90.50.196,2069616947,514523,0.5783,0.578,0.5188,-14.8315,-47.7905,60.3638
1778683093.278015,10.90.50.196,2069622231,514524,0.5757,0.5695,0.5188,-15.2588,-48.4619,59.7534
1778683093.282015,10.90.50.196,2069625310,514525,0.5869,0.5575,0.5132,-13.0005,-48.4619,58.8989
1778683093.283057,10.90.50.196,2069628902,514526,0.5813,0.5514,0.5205,-12.146,-47.5464,58.2886
1778683093.290572,10.90.50.196,2069632941,514527,0.5759,0.5485,0.5269,-10.9253,-47.4854,59.2041
1778683093.307774,10.90.50.196,2069636878,514528,0.584,0.5507,0.524,-10.1929,-47.2412,60.3638
1778683093.315626,10.90.50.196,2069640980,514529,0.5903,0.5541,0.5149,-9.1553,-46.875,61.4014
1778683093.315626,10.90.50.196,2069644975,514530,0.5835,0.5573,0.5249,-8.728,-46.5698,61.7065
1778683093.315626,10.90.50.196,2069648887,514531,0.5776,0.5627,0.5274,-5.8594,-46.2646,61.8286
1778683093.315626,10.90.50.196,2069654880,514532,0.5932,0.5717,0.5198,-5.0659,-46.814,61.7065
1778683093.315626,10.90.50.196,2069657595,514533,0.5954,0.5746,0.5147,-6.1646,-46.875,62.3169
1778683093.318839,10.90.50.196,2069660916,514534,0.5881,0.5761,0.5108,-8.0566,-45.9595,63.4766
1778683093.321841,10.90.50.196,2069664933,514535,0.5783,0.5773,0.5154,-8.0566,-44.9829,64.209
1778683093.324787,10.90.50.196,2069668975,514536,0.5737,0.5751,0.5218,-7.9956,-45.105,63.8428
1778683093.329606,10.90.50.196,2069673113,514537,0.5671,0.5695,0.5247,-6.2256,-46.0815,62.8052
1778683093.332638,10.90.50.196,2069677057,514538,0.5796,0.5671,0.5249,-6.4087,-48.0957,62.3779
1778683093.332638,10.90.50.196,2069681100,514539,0.594,0.5595,0.5176,-4.8828,-48.1567,62.561
1778683093.34117,10.90.50.196,2069686424,514540,0.5993,0.5556,0.5225,-3.9673,-46.814,62.9883
1778683093.345599,10.90.50.196,2069689450,514541,0.5967,0.561,0.5103,-4.0894,-45.3491,63.4155
1778683093.348597,10.90.50.196,2069693029,514542,0.5698,0.5746,0.5132,-3.3569,-44.2505,63.9648
1778683093.356363,10.90.50.196,2069697049,514543,0.5617,0.5863,0.5174,-3.0518,-45.4712,63.9648
1778683093.357362,10.90.50.196,2069701077,514544,0.5647,0.5937,0.5215,-3.7842,-47.7295,63.6597
1778683093.377006,10.90.50.196,2069705067,514545,0.5869,0.5903,0.51,-5.127,-49.3164,63.4766
1778683093.388288,10.90.50.196,2069709080,514546,0.6023,0.5863,0.5044,-6.1035,-48.7671,62.9272
1778683093.388288,10.90.50.196,2069713119,514547,0.5788,0.5749,0.5222,-5.9204,-46.875,62.1338
1778683093.388288,10.90.50.196,2069718174,514548,0.5661,0.55,0.5515,-3.54,-48.7671,60.4248
1778683093.388288,10.90.50.196,2069721214,514549,0.5879,0.5431,0.5513,-0.6104,-50.7202,58.8379
1778683093.388288,10.90.50.196,2069725195,514550,0.6118,0.5468,0.5408,1.8921,-50.9644,58.5327
1778683093.389288,10.90.50.196,2069729247,514551,0.5998,0.549,0.5345,3.54,-49.5605,59.021
1778683093.409659,10.90.50.196,2069733182,514552,0.5793,0.557,0.5279,5.3711,-47.4854,59.7534
1778683093.409659,10.90.50.196,2069737296,514553,0.5781,0.5675,0.5144,6.5308,-47.2412,60.791
1778683093.409659,10.90.50.196,2069741283,514554,0.5815,0.5861,0.4939,6.3477,-45.9595,62.8662
1778683093.409659,10.90.50.196,2069745167,514555,0.5681,0.6029,0.4754,3.8452,-44.6167,64.6362
1778683093.409659,10.90.50.196,2069750177,514556,0.5659,0.632,0.4527,1.4038,-41.8091,65.4907
1778683093.409659,10.90.50.196,2069753177,514557,0.5317,0.6278,0.4619,-3.0518,-42.1753,66.2231
1778683093.409659,10.90.50.196,2069757223,514558,0.5427,0.6237,0.4741,-4.4556,-44.9829,65.1855
1778683093.418945,10.90.50.196,2069761258,514559,0.5635,0.612,0.4927,-6.5308,-46.9971,64.5752
1778683093.422628,10.90.50.196,2069765382,514560,0.5676,0.5815,0.5154,-8.728,-48.4619,63.7817
1778683093.427954,10.90.50.196,2069769789,514561,0.5803,0.5666,0.532,-7.4463,-49.8047,63.5986
1778683093.431124,10.90.50.196,2069773392,514562,0.6032,0.5668,0.5276,-9.3384,-49.1943,64.6362
1778683093.431124,10.90.50.196,2069777313,514563,0.602,0.5668,0.5276,-8.9722,-47.3633,66.6504
1778683093.439024,10.90.50.196,2069782655,514564,0.5825,0.56,0.532,-8.0566,-45.0439,67.3828
1778683093.441289,10.90.50.196,2069785709,514565,0.5783,0.5517,0.5442,-6.1646,-46.2036,66.8945
1778683093.441289,10.90.50.196,2069789471,514566,0.5928,0.5546,0.5325,-2.1973,-47.9736,65.4907
1778683093.441289,10.90.50.196,2069793307,514567,0.6081,0.5544,0.5169,0.061,-47.6685,65.0635
1778683093.461155,10.90.50.196,2069797420,514568,0.604,0.568,0.5093,2.1362,-45.5933,65.5518
1778683093.461774,10.90.50.196,2069801437,514569,0.5788,0.5793,0.5183,3.479,-43.396,66.4673
1778683093.464756,10.90.50.196,2069805392,514570,0.562,0.5871,0.5191,3.2349,-43.6401,66.8335
1778683093.473346,10.90.50.196,2069810986,514571,0.5754,0.5956,0.5066,1.709,-45.2271,67.0776
1778683093.473346,10.90.50.196,2069815634,514572,0.5949,0.5976,0.4881,0.8545,-45.4102,67.749
1778683093.475284,10.90.50.196,2069818593,514573,0.5879,0.5944,0.4854,-1.6479,-43.2739,68.9087
1778683093.475284,10.90.50.196,2069821545,514574,0.5708,0.5976,0.4981,-1.8921,-42.2974,69.0918
1778683093.475284,10.90.50.196,2069825487,514575,0.5666,0.6007,0.5005,-3.0518,-42.3584,68.9087
1778683093.48927,10.90.50.196,2069829555,514576,0.5671,0.5898,0.5056,-3.6011,-42.7856,69.2139
1778683093.493979,10.90.50.196,2069833427,514577,0.5779,0.5824,0.5044,-4.1504,-44.1284,69.0308
1778683093.496104,10.90.50.196,2069837531,514578,0.583,0.5778,0.5044,-3.479,-43.8843,69.1528
1778683093.509774,10.90.50.196,2069841425,514579,0.5818,0.5846,0.5017,-3.6621,-42.9077,69.2139
1778683093.512498,10.90.50.196,2069845644,514580,0.5759,0.5912,0.5081,-3.8452,-42.3584,69.5801
1778683093.512498,10.90.50.196,2069849703,514581,0.5713,0.5924,0.5137,-3.479,-42.4805,69.7632
1778683093.512498,10.90.50.196,2069853618,514582,0.5742,0.5854,0.5135,-4.5166,-43.457,69.5801
1778683093.51333,10.90.50.196,2069857456,514583,0.5823,0.5854,0.5076,-4.1504,-43.457,69.8853
1778683093.518119,10.90.50.196,2069861505,514584,0.5832,0.5851,0.5069,-5.0659,-42.8467,70.4346
1778683093.521528,10.90.50.196,2069865509,514585,0.5823,0.5815,0.5105,-5.188,-42.7856,70.5566
1778683093.524817,10.90.50.196,2069869523,514586,0.5815,0.5871,0.5059,-4.8218,-42.5415,70.6787
1778683093.524817,10.90.50.196,2069873661,514587,0.5749,0.5819,0.5096,-4.1504,-42.4805,71.106
1778683093.524817,10.90.50.196,2069877557,514588,0.5849,0.5807,0.5086,-4.0894,-42.7856,71.167
1778683093.538295,10.90.50.196,2069882515,514589,0.5791,0.5776,0.5125,-4.0283,-42.1753,71.4722
1778683093.542007,10.90.50.196,2069885741,514590,0.5847,0.5788,0.512,-4.2725,-42.4194,71.6553
1778683093.54545,10.90.50.196,2069889561,514591,0.5842,0.5766,0.5122,-3.2959,-42.3584,71.6553
1778683093.555011,10.90.50.196,2069893738,514592,0.5857,0.5868,0.5125,-3.2959,-41.9922,71.8384
1778683093.557031,10.90.50.196,2069897751,514593,0.583,0.5815,0.5083,-3.6621,-41.8701,72.0825
1778683093.563512,10.90.50.196,2069901575,514594,0.5818,0.5783,0.5105,-2.9907,-41.9922,72.5098
1778683093.56548,10.90.50.196,2069905665,514595,0.5805,0.5832,0.5081,-2.2583,-41.5039,72.8149
1778683093.574111,10.90.50.196,2069909741,514596,0.5783,0.58,0.5105,-2.6245,-42.0532,72.6929
1778683093.577057,10.90.50.196,2069916163,514597,0.5845,0.5854,0.5064,-2.3804,-41.8701,72.937
1778683093.579591,10.90.50.196,2069919461,514598,0.5757,0.5854,0.5056,-3.3569,-41.748,72.6318
1778683093.580576,10.90.50.196,2069922864,514599,0.5761,0.5881,0.5061,-1.709,-41.8701,72.7539
1778683093.585198,10.90.50.196,2069926017,514600,0.5764,0.5888,0.5054,-2.3804,-41.9312,72.998
1778683093.587013,10.90.50.196,2069929768,514601,0.5776,0.5859,0.5074,-2.9297,-42.2363,73.1812
1778683093.589989,10.90.50.196,2069933775,514602,0.5805,0.5819,0.5059,-3.9062,-42.7246,73.6084
1778683093.598934,10.90.50.196,2069937810,514603,0.5813,0.5832,0.501,-3.9673,-43.0298,73.9136
1778683093.612609,10.90.50.196,2069941758,514604,0.5793,0.5849,0.4998,-3.479,-42.9077,74.0356
1778683093.615036,10.90.50.196,2069945833,514605,0.5813,0.5829,0.4988,-3.479,-42.8467,74.4019
1778683093.615036,10.90.50.196,2069949768,514606,0.5781,0.5827,0.4986,-3.9673,-42.9688,75.1953
1778683093.615036,10.90.50.196,2069953748,514607,0.574,0.5839,0.4993,-4.3945,-42.7856,75.6836
1778683093.615036,10.90.50.196,2069957863,514608,0.5774,0.5837,0.5003,-3.7842,-43.1519,75.5615
1778683093.622779,10.90.50.196,2069961887,514609,0.5759,0.5839,0.5027,-3.7842,-43.396,75.6226
1778683093.627307,10.90.50.196,2069965888,514610,0.5823,0.5888,0.5022,-3.6621,-43.457,75.9277
1778683093.629306,10.90.50.196,2069969798,514611,0.5791,0.5873,0.5078,-4.5166,-43.7622,75.7446
1778683093.631354,10.90.50.196,2069973796,514612,0.5908,0.5844,0.5049,-4.2725,-43.8232,75.6836
1778683093.631354,10.90.50.196,2069977939,514613,0.5852,0.5834,0.5081,-4.3945,-43.5181,76.1719
1778683093.639289,10.90.50.196,2069982762,514614,0.5864,0.5863,0.5056,-4.8218,-43.5791,76.2939
1778683093.641361,10.90.50.196,2069985910,514615,0.5884,0.5805,0.5061,-5.7373,-43.8232,76.1719
1778683093.645722,10.90.50.196,2069989827,514616,0.5859,0.5795,0.5049,-5.5542,-43.5791,76.2939
1778683093.655708,10.90.50.196,2069993964,514617,0.5884,0.5819,0.5049,-5.9204,-43.5181,76.4771
1778683093.655708,10.90.50.196,2069997947,514618,0.5871,0.5788,0.5056,-6.2866,-43.7622,76.355
1778683093.660177,10.90.50.196,2070002044,514619,0.5852,0.5763,0.5105,-6.897,-43.8843,76.2329
1778683093.660177,10.90.50.196,2070005988,514620,0.594,0.5751,0.5117,-6.4087,-44.1895,76.0498
1778683093.660177,10.90.50.196,2070009947,514621,0.5925,0.5734,0.5103,-6.5308,-44.1284,75.7446
1778683093.673981,10.90.50.196,2070017488,514622,0.5928,0.5695,0.5074,-6.0425,-44.0063,75.5005
1778683093.678721,10.90.50.196,2070021995,514623,0.594,0.5634,0.5078,-4.2725,-43.457,75.0732
1778683093.68084,10.90.50.196,2070026006,514624,0.5945,0.5666,0.5086,-4.3335,-43.5791,75.0732
1778683093.68084,10.90.50.196,2070030012,514625,0.5969,0.5693,0.5032,-3.8452,-43.396,75.1343
1778683093.692291,10.90.50.196,2070033941,514626,0.5945,0.57,0.5008,-2.7466,-43.2129,75.2563
1778683093.694438,10.90.50.196,2070038039,514627,0.5976,0.5756,0.4986,-3.1128,-42.8467,75.5615
1778683093.694438,10.90.50.196,2070041991,514628,0.5906,0.5724,0.5005,-2.3804,-42.2363,75.8667
1778683093.711935,10.90.50.196,2070046065,514629,0.5962,0.5744,0.4981,-2.6245,-42.2974,76.0498
1778683093.715038,10.90.50.196,2070050229,514630,0.5928,0.5851,0.5003,-2.6855,-41.8701,75.9888
1778683093.715038,10.90.50.196,2070054165,514631,0.5925,0.5883,0.5064,-2.6855,-41.9922,75.9277
1778683093.715038,10.90.50.196,2070058054,514632,0.5906,0.5868,0.5059,-2.9297,-41.687,76.1108
1778683093.721697,10.90.50.196,2070062146,514633,0.5925,0.581,0.5056,-3.418,-41.4429,76.355
1778683093.724696,10.90.50.196,2070066042,514634,0.5903,0.5756,0.5074,-4.9438,-41.3208,76.9043
1778683093.727763,10.90.50.196,2070070164,514635,0.5845,0.5741,0.5066,-5.188,-41.3208,77.0264
1778683093.729963,10.90.50.196,2070074158,514636,0.5906,0.5741,0.503,-4.6387,-41.5039,77.3315
1778683093.730479,10.90.50.196,2070078162,514637,0.581,0.5658,0.5054,-4.7607,-41.3818,77.8809
1778683093.739301,10.90.50.196,2070082891,514638,0.5788,0.5668,0.5027,-5.188,-41.8091,78.4912
1778683093.743256,10.90.50.196,2070086119,514639,0.5869,0.5632,0.4969,-5.3711,-42.3584,78.7354
1778683093.746166,10.90.50.196,2070090100,514640,0.5869,0.5658,0.501,-4.3945,-42.4194,79.1626
1778683093.746166,10.90.50.196,2070094100,514641,0.5901,0.5727,0.5054,-3.6621,-42.3584,79.5898
1778683093.754828,10.90.50.196,2070098112,514642,0.5964,0.5756,0.5039,-4.0283,-42.7246,79.9561
1778683093.757674,10.90.50.196,2070102137,514643,0.5996,0.578,0.5105,-4.1504,-42.6636,80.1392
1778683093.757674,10.90.50.196,2070106135,514644,0.5893,0.5649,0.5169,-4.4556,-42.4805,80.3833
1778683093.757674,10.90.50.196,2070110247,514645,0.5886,0.569,0.5054,-5.249,-42.9688,80.9326
1778683093.774753,10.90.50.196,2070117586,514646,0.5923,0.5675,0.5015,-6.4087,-42.9688,81.543
1778683093.776901,10.90.50.196,2070120899,514647,0.594,0.5693,0.5056,-5.6763,-43.2739,81.3599
1778683093.7805,10.90.50.196,2070123888,514648,0.5901,0.5605,0.5083,-6.2866,-43.335,81.2378
1778683093.7805,10.90.50.196,2070126878,514649,0.6003,0.5634,0.5025,-5.7983,-43.9453,81.0547
1778683093.790889,10.90.50.196,2070130278,514650,0.5984,0.5688,0.5037,-5.188,-43.5791,81.2378
1778683093.790889,10.90.50.196,2070134235,514651,0.6032,0.569,0.5083,-5.5542,-43.8232,81.0547
1778683093.790889,10.90.50.196,2070138253,514652,0.612,0.5624,0.5105,-5.7373,-43.7012,80.4443
1778683093.790889,10.90.50.196,2070142360,514653,0.6086,0.5644,0.5186,-5.188,-43.1519,80.1392
1778683093.813722,10.90.50.196,2070147261,514654,0.6032,0.5661,0.5171,-5.3101,-42.9077,79.5898
1778683093.8167,10.90.50.196,2070150274,514655,0.603,0.5641,0.5205,-4.8828,-42.7246,79.1016
1778683093.8167,10.90.50.196,2070154446,514656,0.5949,0.5563,0.5186,-4.9438,-42.2363,79.2847
1778683093.8167,10.90.50.196,2070158338,514657,0.5935,0.5624,0.5161,-5.4321,-41.9312,79.7119
1778683093.821697,10.90.50.196,2070162318,514658,0.592,0.5602,0.512,-4.3335,-41.1987,79.5288
1778683093.823697,10.90.50.196,2070166338,514659,0.5813,0.5507,0.5191,-3.6011,-41.0156,79.2847
1778683093.826826,10.90.50.196,2070170461,514660,0.5852,0.5461,0.5149,-2.6855,-41.0767,79.834
1778683093.829823,10.90.50.196,2070174445,514661,0.594,0.5434,0.5061,-3.479,-41.748,81.4209
1778683093.832872,10.90.50.196,2070179370,514662,0.5908,0.5412,0.4939,-2.5635,-41.8701,82.9468
1778683093.838269,10.90.50.196,2070182396,514663,0.5906,0.537,0.4873,-2.8076,-41.4429,85.022
1778683093.843343,10.90.50.196,2070186378,514664,0.5962,0.5624,0.4812,-2.7466,-41.1987,87.3413
1778683093.846341,10.90.50.196,2070190378,514665,0.5903,0.5844,0.489,-2.1362,-41.9922,87.8296
1778683093.84797,10.90.50.196,2070194564,514666,0.582,0.6,0.4998,-2.6855,-44.0063,87.0361
1778683093.855071,10.90.50.196,2070198392,514667,0.5862,0.6003,0.5032,-4.8828,-45.8374,85.8154
1778683093.85907,10.90.50.196,2070202569,514668,0.6062,0.5959,0.5037,-6.6528,-48.0957,84.8389
1778683093.862672,10.90.50.196,2070206581,514669,0.6169,0.5844,0.5083,-8.3008,-48.0347,84.1064
1778683093.865698,10.90.50.196,2070211975,514670,0.6106,0.5588,0.5208,-9.7046,-47.7295,84.2285
1778683093.874153,10.90.50.196,2070215123,514671,0.6062,0.5429,0.5191,-10.5591,-48.4619,84.5947
1778683093.876624,10.90.50.196,2070220628,514672,0.6335,0.5336,0.5034,-10.6201,-49.1943,85.2051
1778683093.880607,10.90.50.196,2070223651,514673,0.6289,0.529,0.501,-9.4604,-47.6685,85.5713
1778683093.881651,10.90.50.196,2070226549,514674,0.6208,0.5258,0.5032,-7.5073,-46.5088,85.8765
1778683093.889591,10.90.50.196,2070230580,514675,0.6184,0.5275,0.5059,-6.0425,-46.0205,86.1206
1778683093.891403,10.90.50.196,2070234578,514676,0.6167,0.5414,0.5117,-4.1504,-45.4102,85.8154
1778683093.891403,10.90.50.196,2070238699,514677,0.6206,0.5512,0.5152,-2.6855,-45.105,85.2051
1778683093.900784,10.90.50.196,2070243923,514678,0.6269,0.5524,0.5164,-3.1128,-44.9219,85.083
1778683093.903021,10.90.50.196,2070246897,514679,0.623,0.5548,0.5198,-3.3569,-44.4946,85.2051
1778683093.907466,10.90.50.196,2070250615,514680,0.6345,0.5578,0.5115,-3.2959,-44.0063,85.083
1778683093.907466,10.90.50.196,2070254544,514681,0.6411,0.5502,0.5152,-3.54,-43.0298,84.8999
1778683093.931655,10.90.50.196,2070258741,514682,0.6267,0.5458,0.5171,-3.1738,-42.2974,84.5337
1778683093.931655,10.90.50.196,2070262642,514683,0.6172,0.5426,0.5186,-2.8687,-40.5273,84.3506
1778683093.931655,10.90.50.196,2070266624,514684,0.6162,0.5414,0.5135,-2.8687,-40.6494,84.7168
1778683093.932655,10.90.50.196,2070270741,514685,0.6123,0.5368,0.5056,-3.1128,-40.6494,85.3882
1778683093.934654,10.90.50.196,2070275496,514686,0.6179,0.5351,0.501,-2.7466,-41.5039,86.2427
1778683093.936691,10.90.50.196,2070279040,514687,0.624,0.5346,0.4961,-2.2583,-41.2598,86.731
1778683093.94364,10.90.50.196,2070282741,514688,0.6069,0.537,0.4947,-1.5869,-41.0156,87.4634
1778683093.944631,10.90.50.196,2070286695,514689,0.6064,0.5426,0.4959,-1.8311,-41.2598,88.0737
1778683093.94866,10.90.50.196,2070290808,514690,0.6218,0.5451,0.4947,-1.77,-42.9077,87.7686
1778683093.94866,10.90.50.196,2070294782,514691,0.614,0.5478,0.492,-0.4883,-42.2974,87.2192
1778683093.954937,10.90.50.196,2070298793,514692,0.6272,0.5548,0.4978,-1.5259,-42.7246,87.2803
1778683093.958004,10.90.50.196,2070302696,514693,0.6184,0.5548,0.4981,-1.8311,-42.4805,87.4023
1778683093.964833,10.90.50.196,2070307951,514694,0.6274,0.5573,0.4986,-1.4038,-42.9077,87.2192
1778683093.967872,10.90.50.196,2070311184,514695,0.6257,0.5473,0.5054,-3.54,-42.6025,87.1582
1778683093.973635,10.90.50.196,2070314785,514696,0.6225,0.5409,0.5074,-3.6011,-42.2363,86.9751
1778683093.978823,10.90.50.196,2070318921,514697,0.6174,0.5451,0.5117,-5.249,-41.687,88.3179
1778683093.981506,10.90.50.196,2070323188,514698,0.6111,0.5356,0.5115,-6.5308,-43.0908,89.3555
1778683093.981506,10.90.50.196,2070326912,514699,0.6394,0.5412,0.5025,-7.3242,-44.5557,89.4165
1778683093.998968,10.90.50.196,2070330886,514700,0.6457,0.5341,0.5061,-5.9204,-43.7012,88.1348
1778683093.998968,10.90.50.196,2070334781,514701,0.6379,0.5295,0.512,-5.249,-42.9688,87.2803
1778683094.005969,10.90.50.196,2070339950,514702,0.6377,0.5175,0.5103,-6.5308,-42.6025,88.1348
1778683094.005969,10.90.50.196,2070342972,514703,0.6474,0.5182,0.5056,-6.8359,-42.6025,89.2944
1778683094.005969,10.90.50.196,2070346920,514704,0.6335,0.5192,0.5127,-6.958,-41.687,89.9658
1778683094.008027,10.90.50.196,2070350910,514705,0.6269,0.526,0.5127,-6.1035,-41.1987,90.3931
1778683094.023219,10.90.50.196,2070354992,514706,0.6196,0.5226,0.5164,-5.0049,-42.1143,89.9658
1778683094.023219,10.90.50.196,2070358975,514707,0.6435,0.5229,0.5125,-4.4556,-42.9688,89.7217
1778683094.023219,10.90.50.196,2070362961,514708,0.6426,0.5231,0.5152,-3.1738,-42.7856,90.0269
1778683094.024736,10.90.50.196,2070366861,514709,0.6579,0.5231,0.5137,-3.418,-42.0532,90.4541
1778683094.028696,10.90.50.196,2070372277,514710,0.6518,0.5129,0.5237,-2.8076,-40.5884,90.4541
1778683094.031712,10.90.50.196,2070375229,514711,0.6516,0.5092,0.5264,-2.7466,-40.6494,90.0879
1778683094.032192,10.90.50.196,2070378961,514712,0.6491,0.4836,0.5396,-2.8687,-38.8184,90.8813
1778683094.032192,10.90.50.196,2070382929,514713,0.6491,0.4718,0.5354,-1.709,-38.5742,92.8345
1778683094.04315,10.90.50.196,2070387086,514714,0.647,0.488,0.5144,-1.8921,-39.1235,94.9707
1778683094.055154,10.90.50.196,2070391062,514715,0.6311,0.4992,0.5091,-0.7324,-38.269,97.3511
1778683094.055154,10.90.50.196,2070394972,514716,0.6811,0.5231,0.5025,0.061,-40.4053,96.9238
1778683094.057164,10.90.50.196,2070398939,514717,0.6675,0.5312,0.5113,4.3335,-39.4287,94.8486
1778683094.060651,10.90.50.196,2070404322,514718,0.6523,0.5358,0.5325,3.1738,-38.269,94.0552
1778683094.065295,10.90.50.196,2070407268,514719,0.6721,0.5385,0.5196,2.1362,-37.7808,93.3838
1778683094.065295,10.90.50.196,2070411152,514720,0.6633,0.5436,0.5254,1.0376,-37.1704,92.8345
1778683094.072693,10.90.50.196,2070415148,514721,0.6518,0.5219,0.5376,0.3052,-35.0342,91.6138
1778683094.078363,10.90.50.196,2070419118,514722,0.6553,0.516,0.5432,-1.5869,-35.1562,91.7969
1778683094.081764,10.90.50.196,2070424242,514723,0.6516,0.5036,0.5413,-1.6479,-34.3628,92.041
1778683094.081764,10.90.50.196,2070427422,514724,0.6467,0.496,0.5508,-2.0142,-34.2407,92.4683
1778683094.088689,10.90.50.196,2070431210,514725,0.6504,0.4906,0.5479,0.9766,-33.2642,91.9189
1778683094.091608,10.90.50.196,2070436350,514726,0.6372,0.4831,0.5445,2.6855,-32.5317,92.4072
1778683094.091608,10.90.50.196,2070439291,514727,0.6496,0.5002,0.5364,1.8921,-33.6914,93.9941
1778683094.091608,10.90.50.196,2070443101,514728,0.647,0.5124,0.5271,3.2349,-32.959,94.7266
1778683094.091608,10.90.50.196,2070447077,514729,0.6235,0.516,0.5305,5.3711,-30.6396,94.4214
1778683094.129523,10.90.50.196,2070451247,514730,0.5986,0.5168,0.5406,5.249,-31.0059,94.5435
1778683094.129523,10.90.50.196,2070455165,514731,0.592,0.5082,0.5406,4.5166,-33.7524,95.0928
1778683094.129523,10.90.50.196,2070459193,514732,0.5832,0.4994,0.5359,4.8218,-36.438,95.7031
1778683094.129523,10.90.50.196,2070463305,514733,0.5681,0.5378,0.5188,7.019,-38.269,98.0225
1778683094.129523,10.90.50.196,2070468586,514734,0.5598,0.5705,0.5152,5.6763,-40.0391,98.7549
1778683094.129523,10.90.50.196,2070471484,514735,0.5845,0.5827,0.5047,4.6387,-44.6777,96.8628
1778683094.129523,10.90.50.196,2070475324,514736,0.6106,0.5671,0.5088,2.4414,-50.2319,95.3369
1778683094.129523,10.90.50.196,2070479153,514737,0.6452,0.5448,0.5125,-2.6245,-53.3447,94.6045
1778683094.139596,10.90.50.196,2070483171,514738,0.6548,0.527,0.5196,-5.0659,-54.2603,94.3604
1778683094.143571,10.90.50.196,2070487181,514739,0.6633,0.5185,0.5254,-6.2866,-53.9551,93.2007
1778683094.147238,10.90.50.196,2070491235,514740,0.6623,0.5111,0.5342,-5.7983,-53.4668,92.4683
1778683094.147238,10.90.50.196,2070495381,514741,0.6562,0.5165,0.5437,-6.3477,-53.5889,92.1021
1778683094.156248,10.90.50.196,2070500588,514742,0.6804,0.5382,0.5379,-5.188,-53.0396,91.4917
1778683094.159864,10.90.50.196,2070503623,514743,0.6594,0.5326,0.5523,-7.6294,-50.8423,91.0645
1778683094.163682,10.90.50.196,2070507421,514744,0.6448,0.4779,0.5769,-12.3901,-50.415,93.811
1778683094.163682,10.90.50.196,2070511394,514745,0.6277,0.4467,0.5789,-18.4937,-53.6499,98.0835
1778683094.171673,10.90.50.196,2070515428,514746,0.6448,0.4403,0.5564,-15.1978,-54.6875,98.5107
1778683094.190655,10.90.50.196,2070519429,514747,0.6638,0.4413,0.5437,-10.0098,-54.5654,96.9849
1778683094.190655,10.90.50.196,2070523483,514748,0.6548,0.4335,0.5637,-3.0518,-52.6733,95.459
1778683094.190655,10.90.50.196,2070527756,514749,0.6655,0.4465,0.5828,2.3193,-49.6216,95.7031
1778683094.191039,10.90.50.196,2070534502,514750,0.6792,0.4631,0.5904,4.6387,-47.4243,97.229
1778683094.191039,10.90.50.196,2070537477,514751,0.7112,0.4338,0.6333,9.7656,-47.9126,97.5952
1778683094.191039,10.90.50.196,2070540636,514752,0.7414,0.4826,0.6096,16.6626,-47.1191,101.0132
1778683094.191039,10.90.50.196,2070543559,514753,0.7492,0.4955,0.5926,6.8359,-39.2456,108.8867
1778683094.191039,10.90.50.196,2070547429,514754,0.7446,0.5226,0.5559,0.2441,-39.1846,112.7319
1778683094.208742,10.90.50.196,2070551444,514755,0.7199,0.5529,0.5076,3.3569,-36.9263,110.1074
1778683094.211562,10.90.50.196,2070555361,514756,0.6999,0.5995,0.4597,6.2866,-35.9497,102.9663
1778683094.226801,10.90.50.196,2070559562,514757,0.6523,0.6154,0.4385,3.6621,-35.0342,96.4966
1778683094.230966,10.90.50.196,2070563510,514758,0.6279,0.6105,0.4314,-0.8545,-38.5742,89.7827
1778683094.230966,10.90.50.196,2070567479,514759,0.6172,0.5898,0.4351,-0.7935,-42.8467,81.4819
1778683094.230966,10.90.50.196,2070571589,514760,0.6191,0.5592,0.4307,-2.5024,-47.2412,74.0967
1778683094.230966,10.90.50.196,2070575539,514761,0.6216,0.5046,0.4683,-5.4932,-53.5278,68.7866
1778683094.238625,10.90.50.196,2070579475,514762,0.6601,0.4684,0.4717,-5.188,-59.2041,64.5142
1778683094.240947,10.90.50.196,2070583509,514763,0.6799,0.4819,0.4683,-4.2114,-59.5093,63.5376
1778683094.241587,10.90.50.196,2070587456,514764,0.6516,0.5173,0.4776,-5.4932,-55.603,64.209
1778683094.248232,10.90.50.196,2070591667,514765,0.6345,0.5639,0.4712,-11.6577,-55.7861,65.1245
1778683094.250347,10.90.50.196,2070595644,514766,0.6484,0.5968,0.4693,-19.3481,-61.4624,64.209
1778683094.257054,10.90.50.196,2070600463,514767,0.6374,0.6191,0.5103,-25.9399,-61.6455,59.9976
1778683094.259557,10.90.50.196,2070603673,514768,0.5652,0.6288,0.5889,-31.4941,-59.3262,54.3213
1778683094.263707,10.90.50.196,2070607698,514769,0.5183,0.6396,0.6314,-37.1094,-56.8237,47.6685
1778683094.263707,10.90.50.196,2070611523,514770,0.5107,0.6374,0.6436,-45.7153,-58.1055,42.4805
1778683094.272403,10.90.50.196,2070615725,514771,0.5324,0.6266,0.6238,-55.0537,-58.7769,38.8794
1778683094.274532,10.90.50.196,2070619555,514772,0.5386,0.6122,0.6072,-62.0117,-57.1289,35.0952
1778683094.274532,10.90.50.196,2070623571,514773,0.5417,0.6022,0.5945,-64.6973,-53.6499,30.4565
1778683094.286396,10.90.50.196,2070628470,514774,0.5471,0.611,0.5767,-67.5049,-49.6826,26.2451
1778683094.291089,10.90.50.196,2070634111,514775,0.5793,0.5917,0.5479,-72.2046,-49.9878,22.8271
1778683094.291089,10.90.50.196,2070637141,514776,0.6472,0.5148,0.5384,-81.9092,-55.6641,19.2261
