recv_ts,src,raw_ts,seq,acc_x,acc_y,acc_z,gyro_x,gyro_y,gyro_z,label
1778683089.2375,10.90.50.59,1968738127,490938,0.21166000000000001,-0.89832,0.2585,46.15478,-54.211400000000005,-32.93458,speech
1778683089.2499998,10.90.50.59,1968755024,490942,0.21043333333333333,-0.9037333333333333,0.25606666666666666,48.44156666666667,-60.0179,-35.502100000000006,speech
1778683089.2625,10.90.50.59,1968768231,490945,0.2115,-0.8961,0.26076666666666665,50.53713333333334,-63.4155,-37.1297,speech
1778683089.275,10.90.50.59,1968774647,490947,0.2135842857142857,-0.8878014285714285,0.25927190476190476,50.520560952380954,-64.48536571428572,-37.49184714285715,speech
1778683089.2875001,10.90.50.59,1968781063,490948,0.21566857142857143,-0.8795028571428571,0.25777714285714287,50.50398857142857,-65.55523142857143,-37.853994285714286,speech
1778683089.3,10.90.50.59,1968787479,490950,0.21775285714285714,-0.8712042857142857,0.25628238095238093,50.48741619047619,-66.62509714285714,-38.21614142857143,speech
1778683089.3125,10.90.50.59,1968793894,490952,0.21983714285714287,-0.8629057142857143,0.25478761904761904,50.47084380952381,-67.69496285714285,-38.57828857142857,speech
1778683089.325,10.90.50.59,1968800310,490954,0.22192142857142858,-0.8546071428571428,0.25329285714285715,50.454271428571424,-68.76482857142857,-38.94043571428572,speech
1778683089.3374999,10.90.50.59,1968837931,490963,0.2528,-0.84954,0.25438,44.89744,-68.27392,-36.9507,speech
1778683089.3500001,10.90.50.59,1968849995,490966,0.2574,-0.8425,0.2631,43.1519,-64.3311,-34.729,speech
1778683089.3625002,10.90.50.59,1968862886,490969,0.254,-0.8325400000000001,0.26666,40.6372,-60.32714,-32.1411,speech
1778683089.375,10.90.50.59,1968875936,490972,0.25995,-0.81315,0.2723,37.3535,-55.7251,-29.357950000000002,speech
1778683089.3875,10.90.50.59,1968884826,490974,0.2724,-0.80105,0.27765,34.729,-53.03955,-27.86255,speech
1778683089.4,10.90.50.59,1968893419,490977,0.2819785714285714,-0.7911535714285715,0.2823107142857143,31.925735714285715,-48.658096428571426,-26.120867857142855,speech
1778683089.4125,10.90.50.59,1968902012,490979,0.2915571428571429,-0.7812571428571429,0.28697142857142854,29.12247142857143,-44.27664285714286,-24.379185714285715,speech
1778683089.425,10.90.50.59,1968924539,490984,0.2946,-0.768375,0.298525,22.628775,-33.279399999999995,-20.935075,speech
1778683089.4375,10.90.50.59,1968939831,490988,0.295175,-0.7691,0.297275,18.157975,-26.168825,-19.576999999999998,speech
1778683089.4499998,10.90.50.59,1968952225,490992,0.29474999999999996,-0.774,0.3032,16.02175,-21.24025,-19.134549999999997,speech
1778683089.4625,10.90.50.59,1968966480,490995,0.2914,-0.78406,0.30700000000000005,13.635259999999999,-16.3452,-18.969739999999998,speech
1778683089.4750001,10.90.50.59,1968977926,490998,0.284,-0.7951,0.3105,11.5967,-13.3667,-19.3481,speech
1778683089.4875,10.90.50.59,1968986250,491000,0.2838333333333333,-0.8045333333333332,0.3081333333333333,11.352533333333334,-12.613900000000001,-19.816066666666668,speech
1778683089.5,10.90.50.59,1968995044,491002,0.2892,-0.8144999999999999,0.30301666666666666,10.747266666666667,-12.04935,-20.146675000000002,speech
1778683089.5125,10.90.50.59,1969003838,491004,0.29456666666666664,-0.8244666666666666,0.2979,10.142,-11.4848,-20.477283333333332,speech
1778683089.5249999,10.90.50.59,1969017828,491008,0.29921458333333334,-0.8521958333333333,0.29816875,8.98486875,-10.57561875,-20.915991666666667,speech
1778683089.5375,10.90.50.59,1969031817,491012,0.30386250000000004,-0.8799250000000001,0.2984375,7.8277375,-9.6664375,-21.3547,speech
1778683089.5500002,10.90.50.59,1969052296,491016,0.3278,-0.91265,0.29484999999999995,7.23265,-7.6904,-22.85765,speech
1778683089.5625,10.90.50.59,1969061732,491019,0.33713333333333334,-0.9136000000000001,0.2939,7.324233333333333,-5.208333333333333,-23.76303333333333,speech
1778683089.575,10.90.50.59,1969074042,491022,0.35283333333333333,-0.9098,0.28473333333333334,6.368033333333334,-0.9765666666666668,-25.00406666666667,speech
1778683089.5875,10.90.50.59,1969086148,491025,0.36543333333333333,-0.9202333333333333,0.26403333333333334,3.051766666666667,3.580766666666667,-26.489266666666666,speech
1778683089.6,10.90.50.59,1969095081,491027,0.38026666666666664,-0.9556166666666667,0.2641833333333333,-0.5543999999999998,8.453391666666667,-27.67435833333333,speech
1778683089.6125,10.90.50.59,1969104014,491030,0.3951,-0.991,0.26433333333333336,-4.160566666666667,13.326016666666666,-28.85945,speech
1778683089.625,10.90.50.59,1969121914,491034,0.39946666666666664,-1.0995333333333333,0.2814666666666667,-8.422833333333333,27.242,-31.107566666666667,speech
1778683089.6374998,10.90.50.59,1969135746,491038,0.3732,-1.14365,0.290225,-3.021225,37.445075,-33.3252,speech
1778683089.6499999,10.90.50.59,1969150188,491041,0.3497333333333333,-1.0985666666666667,0.2937666666666667,8.890766666666666,43.9453,-36.824533333333335,speech
1778683089.6625001,10.90.50.59,1969161673,491044,0.3268666666666667,-1.0085333333333333,0.28486666666666666,17.822266666666668,46.2443,-40.48666666666667,speech
1778683089.675,10.90.50.59,1969174686,491047,0.2980333333333333,-0.9315666666666668,0.2692333333333334,21.97266666666667,45.349133333333334,-44.9626,speech
1778683089.6875,10.90.50.59,1969187794,491050,0.258175,-0.894875,0.24745,22.964475,39.215075,-50.857525,speech
1778683089.7,10.90.50.59,1969197833,491053,0.2360875,-0.9116541666666667,0.22673333333333334,23.87237916666667,30.5735125,-54.87822083333334,speech
1778683089.7124999,10.90.50.59,1969207872,491056,0.214,-0.9284333333333333,0.20601666666666665,24.780283333333333,21.93195,-58.89891666666667,speech
1778683089.725,10.90.50.59,1969225579,491060,0.21960000000000002,-0.9796666666666667,0.19403333333333336,30.436166666666665,4.8828000000000005,-63.35446666666667,speech
1778683089.7375,10.90.50.59,1969238150,491063,0.23199999999999998,-1.0092666666666668,0.1863,35.42073333333334,-4.557300000000001,-64.51416666666667,speech
1778683089.7500002,10.90.50.59,1969249847,491066,0.23140000000000002,-1.0171666666666666,0.1764,41.666666666666664,-13.1429,-65.3076,speech
1778683089.7625,10.90.50.59,1969259600,491068,0.23895,-1.0109,0.164,47.02755,-19.7754,-64.9109,speech
1778683089.775,10.90.50.59,1969273561,491072,0.248225,-0.9862,0.1462,53.11585,-26.9623,-62.69835,speech
1778683089.7875001,10.90.50.59,1969291545,491076,0.24907500000000002,-0.94415,0.117425,58.090225000000004,-34.469575,-58.685275,speech
1778683089.8,10.90.50.59,1969303512,491078,0.26039999999999996,-0.92215,0.10189999999999999,59.997550000000004,-39.215050000000005,-55.9387,speech
1778683089.8125,10.90.50.59,1969317607,491082,0.25958,-0.88812,0.07374,62.04836,-44.04298,-53.97950000000001,speech
1778683089.825,10.90.50.59,1969329485,491085,0.2662,-0.8513,0.0568,62.6831,-48.5229,-52.6123,speech
1778683089.8374999,10.90.50.59,1969337998,491087,0.28023333333333333,-0.8267666666666668,0.0492,62.62206666666666,-50.354000000000006,-51.59503333333333,speech
1778683089.85,10.90.50.59,1969349650,491090,0.2967,-0.7960666666666666,0.04006666666666667,59.44823333333333,-51.18813333333333,-49.82503333333333,speech
1778683089.8625002,10.90.50.59,1969361574,491093,0.3001666666666667,-0.7861333333333334,0.03716666666666667,54.99266666666667,-49.682633333333335,-47.485366666666664,speech
1778683089.875,10.90.50.59,1969376052,491096,0.3006666666666667,-0.7892333333333333,0.03626666666666667,50.231966666666665,-47.52606666666666,-44.77946666666666,speech
1778683089.8875,10.90.50.59,1969385444,491098,0.3006,-0.7973,0.0322,46.4478,-45.4102,-42.2974,speech
1778683089.9,10.90.50.59,1969393560,491100,0.30282857142857145,-0.8053285714285714,0.033421428571428574,44.08484285714286,-44.067400000000006,-39.969328571428576,speech
1778683089.9125,10.90.50.59,1969401677,491102,0.30505714285714286,-0.8133571428571429,0.03464285714285714,41.72188571428571,-42.7246,-37.64125714285715,speech
1778683089.925,10.90.50.59,1969423459,491108,0.308025,-0.833925,0.039875,37.353525,-39.9475,-31.265275,speech
1778683089.9375,10.90.50.59,1969439906,491112,0.303075,-0.838175,0.044625,36.911,-39.398175,-27.435299999999998,speech
1778683089.95,10.90.50.59,1969451504,491114,0.29325,-0.8363499999999999,0.04625,37.4756,-40.5884,-25.6958,speech
1778683089.9625,10.90.50.59,1969461441,491117,0.29186666666666666,-0.8239,0.05156666666666667,38.798,-42.70426666666666,-25.1872,speech
1778683089.9750001,10.90.50.59,1969473086,491120,0.2912,-0.80765,0.0567,40.25265,-45.44065,-25.3296,speech
1778683089.9875,10.90.50.59,1969486509,491123,0.28908,-0.78736,0.05848,40.47852,-49.8291,-26.342779999999998,speech
1778683090.0,10.90.50.59,1969497463,491126,0.2894,-0.7753,0.0556,39.978,-54.3823,-27.5879,speech
1778683090.0125,10.90.50.59,1969507645,491128,0.29510000000000003,-0.7788999999999999,0.059149999999999994,39.70335,-57.617149999999995,-28.35085,speech
1778683090.0249999,10.90.50.59,1969517378,491131,0.31443333333333334,-0.7888333333333334,0.057166666666666664,38.553866666666664,-59.834833333333336,-28.5848,speech
1778683090.0375,10.90.50.59,1969529906,491134,0.33190000000000003,-0.8131666666666666,0.056266666666666666,37.5366,-60.79103333333333,-27.85236666666667,speech
1778683090.05,10.90.50.59,1969547598,491138,0.35938333333333333,-0.8548833333333333,0.05631666666666666,38.014716666666665,-59.76358333333334,-25.370283333333333,speech
1778683090.0625,10.90.50.59,1969561321,491142,0.3731,-0.8742,0.0537,39.6729,-57.8613,-22.7661,speech
1778683090.075,10.90.50.59,1969568786,491144,0.37505,-0.8809,0.051949999999999996,40.466300000000004,-56.79325,-21.39285,speech
1778683090.0875,10.90.50.59,1969583800,491148,0.37284999999999996,-0.86655,0.05471666666666666,42.93821666666667,-56.406650000000006,-18.351233333333333,speech
1778683090.1,10.90.50.59,1969599348,491151,0.3655,-0.8498,0.0505,43.5791,-58.5327,-16.4795,speech
1778683090.1125,10.90.50.59,1969615514,491156,0.37365,-0.828875,0.0509,42.5415,-63.6901875,-15.396112500000001,speech
1778683090.125,10.90.50.59,1969627541,491158,0.375325,-0.8202375,0.0526125,41.3284375,-67.94739375,-15.31219375,speech
1778683090.1374998,10.90.50.59,1969639568,491162,0.377,-0.8116,0.054325,40.115375,-72.2046,-15.228275,speech
1778683090.15,10.90.50.59,1969655275,491166,0.39325,-0.8155749999999999,0.061625,36.6516,-77.835075,-15.411375,speech
1778683090.1625001,10.90.50.59,1969671680,491170,0.414975,-0.8365750000000001,0.077875,32.486,-80.8258,-14.8468,speech
1778683090.175,10.90.50.59,1969679510,491172,0.4259125,-0.85015,0.0896625,31.0516625,-80.558775,-13.9999375,speech
1778683090.1875,10.90.50.59,1969687340,491174,0.43685,-0.863725,0.10145,29.617325,-80.29175000000001,-13.153075,speech
1778683090.2,10.90.50.59,1969701672,491177,0.4476333333333333,-0.8761666666666666,0.12096666666666667,29.479966666666666,-77.25016666666666,-11.210133333333333,speech
1778683090.2124999,10.90.50.59,1969717188,491181,0.44820000000000004,-0.87668,0.14116,29.174799999999998,-73.10792000000001,-9.13086,speech
1778683090.225,10.90.50.59,1969727395,491184,0.44339,-0.8848900000000001,0.14949,29.461669999999998,-72.26563,-8.72803,speech
1778683090.2375,10.90.50.59,1969737603,491186,0.43857999999999997,-0.8931000000000001,0.15782000000000002,29.748540000000002,-71.42334,-8.3252,speech
1778683090.2499998,10.90.50.59,1969755566,491190,0.43495,-0.91525,0.1628,32.22655,-75.210575,-9.475725,speech
1778683090.2625,10.90.50.59,1969769281,491194,0.4348,-0.9232666666666667,0.1685,35.2173,-80.2409,-11.291533333333334,speech
1778683090.275,10.90.50.59,1969777270,491196,0.4368,-0.9225,0.1667,37.2925,-83.4351,-12.6343,speech
1778683090.2875001,10.90.50.59,1969784046,491198,0.43805000000000005,-0.92425,0.1684,37.7197,-86.30375000000001,-13.855,speech
1778683090.3,10.90.50.59,1969797758,491201,0.44955999999999996,-0.91526,0.17218,39.67286,-91.05222,-16.22316,speech
1778683090.3125,10.90.50.59,1969813116,491205,0.45963333333333334,-0.9034333333333334,0.1799666666666667,39.85596666666667,-94.29933333333334,-18.9412,speech
1778683090.325,10.90.50.59,1969822231,491207,0.46192500000000003,-0.8959750000000001,0.18370000000000003,39.63725,-94.44173333333333,-19.729599999999998,speech
1778683090.3374999,10.90.50.59,1969831346,491210,0.46421666666666667,-0.8885166666666667,0.18743333333333334,39.418533333333336,-94.58413333333334,-20.518,speech
1778683090.3500001,10.90.50.59,1969849086,491214,0.4713333333333333,-0.8647,0.1995,38.309733333333334,-92.99723333333333,-20.751966666666664,speech
1778683090.3625002,10.90.50.59,1969861420,491217,0.4764333333333333,-0.8507666666666666,0.20763333333333334,37.048300000000005,-90.271,-20.426433333333332,speech
1778683090.375,10.90.50.59,1969873072,491220,0.48386666666666667,-0.8327333333333332,0.2165,35.298633333333335,-85.95783333333334,-19.999166666666667,speech
1778683090.3875,10.90.50.59,1969885321,491223,0.4828666666666666,-0.8154666666666667,0.23139999999999997,33.81346666666666,-79.87466666666667,-19.409166666666668,speech
1778683090.4,10.90.50.59,1969899690,491226,0.47545,-0.8022499999999999,0.25135,31.799300000000002,-72.143575,-18.4021,speech
1778683090.4125,10.90.50.59,1969908955,491229,0.4708,-0.7958,0.2619,29.6021,-66.6504,-17.5781,speech
1778683090.425,10.90.50.59,1969921204,491232,0.46787999999999996,-0.7994600000000001,0.27524000000000004,27.417,-59.91212,-16.54052,speech
1778683090.4375,10.90.50.59,1969937050,491236,0.45813333333333334,-0.8141333333333334,0.28813333333333335,26.1027,-50.47606666666667,-14.607733333333334,speech
1778683090.4499998,10.90.50.59,1969948944,491239,0.4466666666666666,-0.8235999999999999,0.30046666666666666,26.224766666666667,-43.965666666666664,-13.122566666666666,speech
1778683090.4625,10.90.50.59,1969965385,491243,0.4274,-0.82752,0.3074,28.137220000000003,-37.658699999999996,-11.499039999999999,speech
1778683090.4750001,10.90.50.59,1969976896,491246,0.4158,-0.8259,0.3117,29.7241,-34.6069,-10.7422,speech
1778683090.4875,10.90.50.59,1969988929,491248,0.393675,-0.8233250000000001,0.3142,31.707775,-33.981325,-10.437,speech
1778683090.5,10.90.50.59,1970004929,491252,0.3645666666666667,-0.8231999999999999,0.3182333333333333,35.2376,-36.2142,-10.6201,speech
1778683090.5125,10.90.50.59,1970015016,491254,0.34885,-0.8200000000000001,0.31894999999999996,37.262,-39.459199999999996,-11.1389,speech
1778683090.5249999,10.90.50.59,1970023004,491256,0.3431166666666667,-0.8163166666666667,0.31757499999999994,39.17440833333333,-43.340025,-11.82555,speech
1778683090.5375,10.90.50.59,1970030993,491258,0.33738333333333337,-0.8126333333333333,0.3162,41.086816666666664,-47.220850000000006,-12.5122,speech
1778683090.5500002,10.90.50.59,1970048938,491263,0.3453333333333333,-0.8030333333333334,0.30929999999999996,45.00326666666667,-56.86443333333333,-14.0991,speech
1778683090.5625,10.90.50.59,1970063148,491266,0.37345,-0.80765,0.299775,47.0276,-61.584475,-15.045175,speech
1778683090.575,10.90.50.59,1970076903,491270,0.39326666666666665,-0.8168000000000001,0.2833333333333333,48.8485,-62.6424,-15.441899999999999,speech
1778683090.5875,10.90.50.59,1970084793,491272,0.3951,-0.821,0.2751,50.7202,-62.439,-15.564,speech
1778683090.6,10.90.50.59,1970097696,491275,0.40176,-0.8199,0.26104,51.818859999999994,-61.58446,-15.319820000000002,speech
1778683090.6125,10.90.50.59,1970110862,491278,0.41169999999999995,-0.82595,0.25195,51.84935,-59.722899999999996,-14.70945,speech
1778683090.625,10.90.50.59,1970119919,491281,0.4132642857142857,-0.8403107142857142,0.2507107142857143,51.463525000000004,-57.59321428571428,-13.811375000000002,speech
1778683090.6374998,10.90.50.59,1970128976,491283,0.41482857142857144,-0.8546714285714286,0.24947142857142857,51.0777,-55.463528571428576,-12.913300000000001,speech
1778683090.6499999,10.90.50.59,1970146785,491288,0.4141,-0.86565,0.2542,52.703900000000004,-52.1545,-11.2915,speech
1778683090.6625001,10.90.50.59,1970161192,491291,0.41558,-0.84756,0.2503,53.88184,-50.04882,-10.26612,speech
1778683090.675,10.90.50.59,1970174852,491294,0.41500000000000004,-0.8305,0.24375,53.6499,-48.37035,-9.67405,speech
1778683090.6875,10.90.50.59,1970180797,491296,0.4109,-0.8293,0.2436,53.0396,-48.0957,-9.5825,speech
1778683090.7,10.90.50.59,1970195576,491300,0.4006166666666667,-0.8593166666666666,0.2392,51.1678,-48.99086666666667,-9.877533333333334,speech
1778683090.7124999,10.90.50.59,1970213287,491304,0.39303333333333335,-0.9079,0.24103333333333332,51.47296666666667,-52.001933333333334,-10.9253,speech
1778683090.725,10.90.50.59,1970217323,491305,0.3935666666666667,-0.91655,0.24206666666666665,52.195233333333334,-52.76486666666666,-11.199950000000001,speech
1778683090.7375,10.90.50.59,1970221360,491306,0.3941,-0.9252,0.2431,52.9175,-53.5278,-11.4746,speech
1778683090.7500002,10.90.50.59,1970239165,491310,0.3903125,-0.93355,0.247325,57.3730375,-56.9686875,-12.794487499999999,speech
1778683090.7625,10.90.50.59,1970260686,491316,0.3917333333333333,-0.9307,0.2467,60.79103333333333,-60.30276666666666,-14.628099999999998,speech
1778683090.775,10.90.50.59,1970270678,491318,0.39325,-0.9351,0.2475,61.00465,-60.730000000000004,-16.05225,speech
1778683090.7875001,10.90.50.59,1970282897,491322,0.38605,-0.93485,0.246775,62.4695,-60.9131,-18.26475,speech
1778683090.8,10.90.50.59,1970287811,491323,0.380325,-0.931375,0.2437375,62.78995,-60.9436,-19.203175,speech
1778683090.8125,10.90.50.59,1970292725,491324,0.3746,-0.9279,0.2407,63.1104,-60.9741,-20.1416,speech
1778683090.825,10.90.50.59,1970300814,491326,0.37152142857142856,-0.9369357142857142,0.23308571428571428,61.963792857142856,-61.7763,-21.371028571428575,speech
1778683090.8374999,10.90.50.59,1970308902,491328,0.3684428571428571,-0.9459714285714286,0.22547142857142857,60.81718571428571,-62.5785,-22.600457142857145,speech
1778683090.85,10.90.50.59,1970340811,491336,0.36691111111111113,-1.0516666666666667,0.2142111111111111,56.0981,-62.94758888888888,-24.00037777777778,speech
1778683090.8625002,10.90.50.59,1970368641,491343,0.373,-1.0528,0.2259,57.86132,-58.593740000000004,-19.62892,speech
1778683090.875,10.90.50.59,1970376835,491345,0.38075000000000003,-1.0568666666666666,0.22060000000000002,55.175776666666664,-56.95597,-17.464193333333334,speech
1778683090.8875,10.90.50.59,1970385030,491347,0.3885,-1.0609333333333335,0.21530000000000002,52.49023333333333,-55.3182,-15.299466666666666,speech
1778683090.9,10.90.50.59,1970403101,491352,0.4001166666666667,-1.0780333333333332,0.21048333333333333,50.90331666666666,-49.163833333333336,-11.006666666666666,speech
1778683090.9125,10.90.50.59,1970418851,491356,0.41375,-1.0360999999999998,0.24004999999999999,54.26025,-41.38185,-8.63645,speech
1778683090.925,10.90.50.59,1970421767,491356,0.412825,-1.01545,0.24817499999999998,55.297825,-39.581325,-8.590675000000001,speech
1778683090.9375,10.90.50.59,1970424683,491357,0.4119,-0.9948,0.2563,56.3354,-37.7808,-8.5449,speech
1778683090.95,10.90.50.59,1970442811,491362,0.4079875,-0.8756,0.3037,56.8924,-27.3666375,-11.68825,speech
1778683090.9625,10.90.50.59,1970466547,491368,0.39497499999999997,-0.76865,0.32742499999999997,55.41995,-15.487675,-22.430425,speech
1778683090.9750001,10.90.50.59,1970478035,491370,0.3704,-0.7512,0.3203,54.8706,-12.6343,-29.48,speech
1778683090.9875,10.90.50.59,1970484660,491372,0.3546333333333333,-0.7547,0.31593333333333334,53.955099999999995,-12.1053,-36.11246666666667,speech
1778683091.0,10.90.50.59,1970498910,491376,0.303975,-0.792925,0.30765,53.237925000000004,-14.907824999999999,-48.568725,speech
1778683091.0125,10.90.50.59,1970513195,491379,0.2622,-0.8547333333333333,0.2985333333333333,54.93163333333333,-22.237133333333333,-61.787933333333335,speech
1778683091.0249999,10.90.50.59,1970522561,491382,0.24105,-0.8973,0.2939,58.07495,-29.541,-70.49565000000001,speech
1778683091.0375,10.90.50.59,1970528524,491383,0.2298,-0.9186,0.2893,60.791,-34.4849,-75.3174,speech
1778683091.05,10.90.50.59,1970542712,491386,0.21253333333333335,-0.9386333333333333,0.2786,68.58316666666667,-46.813966666666666,-83.91316666666667,speech
1778683091.0625,10.90.50.59,1970562440,491392,0.200725,-0.9124749999999999,0.250925,77.69775,-63.903825,-91.979975,speech
1778683091.075,10.90.50.59,1970577357,491395,0.20873333333333333,-0.8720333333333333,0.2291,80.93263333333333,-74.58496666666667,-94.88933333333334,speech
1778683091.0875,10.90.50.59,1970588482,491398,0.21863333333333332,-0.8373333333333334,0.21746666666666667,81.48193333333334,-81.19713333333333,-96.25246666666668,speech
1778683091.1,10.90.50.59,1970598384,491400,0.22895,-0.8072999999999999,0.21185,81.02414999999999,-84.53370000000001,-96.83225,speech
1778683091.1125,10.90.50.59,1970612174,491404,0.243225,-0.77105,0.211675,79.22364999999999,-85.4492,-97.06115,speech
1778683091.125,10.90.50.59,1970622427,491406,0.2548,-0.7293000000000001,0.21675,76.99585,-82.76365,-96.61865,speech
1778683091.1374998,10.90.50.59,1970628458,491408,0.2591,-0.714,0.2241,75.6226,-80.3223,-96.1914,speech
1778683091.15,10.90.50.59,1970640433,491411,0.26116,-0.66756,0.2246,72.25344,-73.4375,-94.66552,speech
1778683091.1625001,10.90.50.59,1970658399,491416,0.2501,-0.618525,0.217675,64.880375,-61.63025,-90.118425,speech
1778683091.175,10.90.50.59,1970674555,491420,0.20905,-0.61425,0.22475,56.77795,-53.085325,-83.99962500000001,speech
1778683091.1875,10.90.50.59,1970690384,491424,0.17105,-0.62605,0.2432,51.773075,-49.97255,-77.545175,speech
1778683091.2,10.90.50.59,1970700299,491426,0.1561,-0.6262,0.2575,49.3774,-50.2319,-73.3032,speech
1778683091.2124999,10.90.50.59,1970712272,491428,0.153575,-0.62955,0.27005,45.608525,-50.994875,-67.9474,speech
1778683091.225,10.90.50.59,1970726281,491432,0.14982499999999999,-0.6514,0.309175,40.054325,-52.8412,-58.883675,speech
1778683091.2375,10.90.50.59,1970735380,491435,0.1537525,-0.6679299999999999,0.3280075,38.374332499999994,-54.1794,-53.3615075,speech
1778683091.2499998,10.90.50.59,1970744479,491437,0.15768,-0.68446,0.34684,36.69434,-55.517599999999995,-47.83934,speech
1778683091.2625,10.90.50.59,1970762549,491442,0.17304999999999998,-0.69025,0.356925,36.48375,-57.098375,-36.697375,speech
1778683091.275,10.90.50.59,1970776305,491445,0.18193333333333336,-0.6799666666666666,0.35906666666666665,36.0718,-58.0648,-28.991699999999998,speech
1778683091.2875001,10.90.50.59,1970790248,491448,0.197025,-0.66235,0.36412500000000003,35.720825,-60.134875,-22.338875,speech
1778683091.3,10.90.50.59,1970803750,491452,0.2089,-0.63895,0.382,34.729,-62.6526,-17.2119,speech
1778683091.3125,10.90.50.59,1970819069,491456,0.23363333333333336,-0.62725,0.4102666666666666,29.276533333333333,-66.12141666666666,-11.7391,speech
1778683091.325,10.90.50.59,1970827016,491458,0.24544166666666667,-0.64115,0.4196583333333333,24.739591666666666,-67.05728333333333,-9.379075,speech
1778683091.3374999,10.90.50.59,1970834962,491460,0.25725,-0.65505,0.42905,20.20265,-67.99315,-7.01905,speech
1778683091.3500001,10.90.50.59,1970842156,491462,0.2659,-0.6888,0.44225,16.174300000000002,-68.32884999999999,-4.5166,speech
1778683091.3625002,10.90.50.59,1970858595,491466,0.30133333333333334,-0.74625,0.4683,12.715666666666666,-67.66765,0.20346666666666677,speech
1778683091.375,10.90.50.59,1970874258,491470,0.34514999999999996,-0.7713,0.47225,12.87845,-64.0259,5.46265,speech
1778683091.3875,10.90.50.59,1970886214,491472,0.3678,-0.77365,0.4645,14.2822,-59.738175,9.6588,speech
1778683091.4,10.90.50.59,1970899231,491476,0.39675,-0.76885,0.4567,15.1062,-55.786100000000005,13.061499999999999,speech
1778683091.4125,10.90.50.59,1970916637,491480,0.4293,-0.7820142857142857,0.4413714285714286,14.962328571428571,-52.96107142857143,16.3487,speech
1778683091.425,10.90.50.59,1970925598,491482,0.448175,-0.7965321428571428,0.4307607142857143,15.369964285714286,-52.557810714285715,16.902375,speech
1778683091.4375,10.90.50.59,1970934560,491484,0.46704999999999997,-0.81105,0.42015,15.7776,-52.15455,17.456049999999998,speech
1778683091.4499998,10.90.50.59,1970950452,491488,0.5023666666666666,-0.8473,0.40635,16.3676,-50.974516666666666,16.621916666666667,speech
1778683091.4625,10.90.50.59,1970966606,491492,0.5386500000000001,-0.8887,0.38239999999999996,15.38085,-49.5911,15.13675,speech
1778683091.4750001,10.90.50.59,1970976090,491495,0.5579999999999999,-0.9268333333333333,0.36063333333333336,13.9567,-49.621566666666666,14.445,speech
1778683091.4875,10.90.50.59,1970988089,491498,0.5863,-0.9931666666666668,0.3329666666666667,9.847,-49.3978,14.078800000000001,speech
1778683091.5,10.90.50.59,1971002382,491502,0.6171,-1.09855,0.30635,5.401625,-46.47825,13.595575,speech
1778683091.5125,10.90.50.59,1971014134,491504,0.64105,-1.1833,0.29169999999999996,5.3711,-41.53445,13.27515,speech
1778683091.5249999,10.90.50.59,1971024359,491507,0.6645666666666666,-1.2166666666666668,0.2805666666666667,8.280433333333333,-36.051433333333335,12.980166666666667,speech
1778683091.5375,10.90.50.59,1971036038,491510,0.6909666666666666,-1.2303,0.2821,10.416666666666666,-28.0151,12.308766666666665,speech
1778683091.5500002,10.90.50.59,1971052127,491514,0.71124,-1.22792,0.30952,10.70556,-12.5366,9.61914,speech
1778683091.5625,10.90.50.59,1971070067,491518,0.70845,-1.1748750000000001,0.32625,18.524175,8.224450000000001,3.128025,speech
1778683091.575,10.90.50.59,1971077033,491520,0.6914583333333333,-1.1161708333333333,0.325175,23.676537500000002,16.187008333333335,-0.7044541666666664,speech
1778683091.5875,10.90.50.59,1971084000,491522,0.6744666666666667,-1.0574666666666666,0.3241,28.8289,24.14956666666667,-4.536933333333333,speech
1778683091.6,10.90.50.59,1971098400,491526,0.61885,-0.933475,0.297925,33.41675,34.2102,-14.80105,speech
1778683091.6125,10.90.50.59,1971114376,491530,0.53545,-0.878225,0.247225,30.74645,36.48375,-28.183,speech
1778683091.625,10.90.50.59,1971126932,491532,0.49470000000000003,-0.92405,0.2005,26.15355,32.92845,-37.5366,speech
1778683091.6374998,10.90.50.59,1971135966,491535,0.48183333333333334,-1.0020333333333333,0.17546666666666666,26.550300000000004,28.361,-43.76220000000001,speech
1778683091.6499999,10.90.50.59,1971139978,491536,0.47896666666666665,-1.0308666666666668,0.17388333333333333,28.4424,26.63165,-45.71535,speech
1778683091.6625001,10.90.50.59,1971143990,491537,0.4761,-1.0597,0.1723,30.3345,24.9023,-47.6685,speech
1778683091.675,10.90.50.59,1971162103,491542,0.4622125,-1.0974875,0.173725,42.2439625,19.6304375,-50.49895,speech
1778683091.6875,10.90.50.59,1971184498,491547,0.4533333333333333,-1.0826666666666667,0.1825,53.161633333333334,14.8112,-49.13333333333333,speech
1778683091.7,10.90.50.59,1971198249,491550,0.439475,-1.0406,0.16785,58.6853,10.635375,-48.3856,speech
1778683091.7124999,10.90.50.59,1971209854,491554,0.4263,-0.98165,0.1485,63.3545,7.1106,-49.1943,speech
1778683091.725,10.90.50.59,1971223499,491556,0.42057500000000003,-0.9027000000000001,0.12329999999999999,66.68090000000001,3.097525,-51.55945,speech
1778683091.7375,10.90.50.59,1971237945,491560,0.39744999999999997,-0.8056,0.10585,67.5659,-2.24305,-56.9153,speech
1778683091.7500002,10.90.50.59,1971245920,491562,0.38781666666666664,-0.7765208333333333,0.1039125,66.16972916666667,-5.615241666666666,-60.84952083333334,speech
1778683091.7625,10.90.50.59,1971253895,491564,0.3781833333333333,-0.7474416666666667,0.101975,64.77355833333333,-8.987433333333332,-64.78374166666667,speech
1778683091.775,10.90.50.59,1971261870,491566,0.36855,-0.7183625,0.1000375,63.3773875,-12.359625,-68.7179625,speech
1778683091.7875001,10.90.50.59,1971286064,491572,0.367925,-0.65655,0.105625,59.127825,-18.2495,-79.95605,speech
1778683091.8,10.90.50.59,1971299771,491576,0.3690333333333333,-0.6271666666666667,0.11166666666666665,55.66406666666666,-16.764333333333333,-83.4554,speech
1778683091.8125,10.90.50.59,1971311817,491579,0.3736,-0.6089000000000001,0.11876666666666667,52.612300000000005,-12.634266666666667,-84.8999,speech
1778683091.825,10.90.50.59,1971325941,491582,0.37766666666666665,-0.6039333333333333,0.11776666666666667,49.37743333333333,-7.059733333333334,-84.9406,speech
1778683091.8374999,10.90.50.59,1971339791,491586,0.37936000000000003,-0.60662,0.12932000000000002,45.70312,-1.2207000000000001,-83.16652,speech
1778683091.85,10.90.50.59,1971354424,491590,0.3748,-0.6075999999999999,0.1256,42.96875,1.6174,-80.26125,speech
1778683091.8625002,10.90.50.59,1971361824,491592,0.3829,-0.6048,0.1179,41.44285,3.0212000000000003,-78.18605,speech
1778683091.875,10.90.50.59,1971373775,491594,0.43527499999999997,-0.6079,0.1227,38.71155,7.38525,-74.29505,speech
1778683091.8875,10.90.50.59,1971390175,491598,0.49515,-0.6219,0.144675,35.09525,20.6299,-67.47435,speech
1778683091.9,10.90.50.59,1971401778,491602,0.50885,-0.63275,0.16015000000000001,32.4097,32.53175,-62.316900000000004,speech
1778683091.9125,10.90.50.59,1971409758,491604,0.50095,-0.6416999999999999,0.17145,30.7312,38.879400000000004,-59.78395,speech
1778683091.925,10.90.50.59,1971424928,491607,0.49528,-0.65624,0.21358000000000002,27.343759999999996,44.4702,-56.665020000000005,speech
1778683091.9375,10.90.50.59,1971439742,491611,0.4941333333333333,-0.6760333333333334,0.2751333333333333,24.210633333333334,45.67463333333333,-54.484033333333336,speech
1778683091.95,10.90.50.59,1971450582,491614,0.48285,-0.6927,0.3094,22.79665,44.2505,-53.68045,speech
1778683091.9625,10.90.50.59,1971458148,491616,0.471325,-0.7063333333333333,0.327725,22.969566666666665,39.866141666666664,-53.538025000000005,speech
1778683091.9750001,10.90.50.59,1971465715,491618,0.4598,-0.7199666666666666,0.34604999999999997,23.14248333333333,35.48178333333333,-53.3956,speech
1778683091.9875,10.90.50.59,1971486115,491622,0.48172499999999996,-0.736025,0.368725,25.8789,19.8059,-54.67225,speech
1778683092.0,10.90.50.59,1971499672,491626,0.5221666666666667,-0.7428333333333333,0.36379999999999996,27.831999999999997,12.125666666666666,-55.52166666666667,speech
1778683092.0125,10.90.50.59,1971516138,491630,0.5778800000000001,-0.75764,0.3589,30.99364,12.10938,-56.31102,speech
1778683092.0249999,10.90.50.59,1971528082,491633,0.6395,-0.77,0.3669,33.3252,18.3105,-56.8848,speech
1778683092.0375,10.90.50.59,1971535651,491635,0.6568999999999999,-0.7862,0.3844,34.647600000000004,26.224766666666667,-57.21026666666666,speech
1778683092.05,10.90.50.59,1971548450,491638,0.6382333333333333,-0.8006333333333333,0.41050000000000003,37.86213333333333,38.59456666666667,-57.82066666666666,speech
1778683092.0625,10.90.50.59,1971561561,491642,0.5756249999999999,-0.786225,0.43545,41.580175000000004,48.5382,-60.1349,speech
1778683092.075,10.90.50.59,1971571617,491644,0.5374,-0.7621,0.4458,42.9077,50.9033,-62.9883,speech
1778683092.0875,10.90.50.59,1971577326,491645,0.5206,-0.7514,0.4528,43.0908,50.4761,-64.4531,speech
1778683092.1,10.90.50.59,1971587486,491648,0.49596,-0.74334,0.459835,39.28832,46.319595,-67.15697,speech
1778683092.1125,10.90.50.59,1971597646,491650,0.47132000000000007,-0.73528,0.46687,35.48584,42.16309,-69.86084,speech
1778683092.125,10.90.50.59,1971623818,491657,0.45203333333333334,-0.8183666666666666,0.4895666666666667,23.74266666666667,29.093466666666668,-70.82113333333334,speech
1778683092.1374998,10.90.50.59,1971635682,491660,0.4761,-0.8774666666666667,0.4857,22.298166666666663,26.204433333333338,-69.07143333333333,speech
1778683092.15,10.90.50.59,1971649830,491664,0.52545,-0.9168499999999999,0.46265,23.60535,29.19005,-64.804075,speech
1778683092.1625001,10.90.50.59,1971658801,491666,0.5371049999999999,-0.9468049999999999,0.465535,23.204045,32.679735,-60.3866575,speech
1778683092.175,10.90.50.59,1971667772,491668,0.54876,-0.97676,0.46841999999999995,22.80274,36.16942,-55.96924,speech
1778683092.1875,10.90.50.59,1971685628,491672,0.536725,-1.06085,0.502825,22.796625,38.726825,-48.67555,speech
1778683092.2,10.90.50.59,1971699486,491676,0.5223,-1.0623333333333334,0.5225,31.229666666666663,37.943533333333335,-47.220866666666666,speech
1778683092.2124999,10.90.50.59,1971713754,491680,0.497925,-0.941775,0.545975,43.6554,35.125725,-49.74365,speech
1778683092.225,10.90.50.59,1971727827,491683,0.46986666666666665,-0.775,0.5438333333333333,50.02846666666667,29.093433333333333,-55.8675,speech
1778683092.2375,10.90.50.59,1971738134,491686,0.4572,-0.6790499999999999,0.51495,50.10985,22.9797,-62.3474,speech
1778683092.2499998,10.90.50.59,1971749468,491688,0.458675,-0.6194500000000001,0.47657499999999997,46.218875,15.625025,-71.136475,speech
1778683092.2625,10.90.50.59,1971759517,491691,0.48459583333333334,-0.6348416666666667,0.45195416666666666,41.684470833333336,13.626104166666668,-77.38240416666667,speech
1778683092.275,10.90.50.59,1971769566,491694,0.5105166666666666,-0.6502333333333333,0.42733333333333334,37.15006666666667,11.627183333333333,-83.62833333333333,speech
1778683092.2875001,10.90.50.59,1971787496,491698,0.5650666666666667,-0.7372333333333333,0.3889666666666667,34.11863333333333,22.1761,-88.98926666666667,speech
1778683092.3,10.90.50.59,1971803738,491702,0.54588,-0.73494,0.40532,40.661620000000006,40.44188,-88.12256,speech
1778683092.3125,10.90.50.59,1971819384,491706,0.4982333333333333,-0.6699999999999999,0.43873333333333336,41.78876666666667,54.76886666666667,-85.51026666666667,speech
1778683092.325,10.90.50.59,1971827457,491708,0.4744,-0.641,0.4445,38.208,57.9834,-84.0454,speech
1778683092.3374999,10.90.50.59,1971838118,491710,0.4505,-0.618575,0.4324,33.3557,58.36485,-82.24487500000001,speech
1778683092.3500001,10.90.50.59,1971851357,491714,0.41996666666666665,-0.5962333333333333,0.3992,27.5472,52.673333333333325,-80.46466666666667,speech
1778683092.3625002,10.90.50.59,1971867619,491718,0.4083,-0.57514,0.38842,24.51172,37.51222,-80.52977999999999,speech
1778683092.375,10.90.50.59,1971877451,491720,0.43612,-0.57441,0.40853,21.76513,29.07105,-80.5603,speech
1778683092.3875,10.90.50.59,1971887283,491723,0.46394,-0.57368,0.42864,19.01854,20.62988,-80.59082000000001,speech
1778683092.4,10.90.50.59,1971902458,491726,0.49655,-0.5974999999999999,0.47125,16.2964,16.0828,-80.07815,speech
1778683092.4125,10.90.50.59,1971911281,491729,0.5159333333333334,-0.6039333333333333,0.5003333333333333,16.6626,16.33706666666667,-79.54913333333333,speech
1778683092.425,10.90.50.59,1971923258,491732,0.5331666666666667,-0.5970333333333333,0.5143666666666666,16.662633333333336,18.575033333333334,-79.1626,speech
1778683092.4375,10.90.50.59,1971937055,491735,0.5514666666666667,-0.5913333333333334,0.5202333333333334,16.276066666666665,23.518900000000002,-79.32533333333333,speech
1778683092.4499998,10.90.50.59,1971949586,491738,0.572825,-0.5952,0.5251750000000001,16.4337,33.966075,-79.84925,speech
1778683092.4625,10.90.50.59,1971959309,491741,0.5657,-0.6083,0.5266,16.9067,41.626,-80.6885,speech
1778683092.4750001,10.90.50.59,1971969508,491744,0.5324,-0.621575,0.541125,18.722525,46.783425,-82.36695,speech
1778683092.4875,10.90.50.59,1971981258,491746,0.49455,-0.62775,0.5549999999999999,21.8506,48.736599999999996,-85.08305,speech
1778683092.5,10.90.50.59,1971999453,491751,0.46312857142857144,-0.6175142857142857,0.5811857142857143,25.47782857142857,45.92458571428572,-90.73311428571428,speech
1778683092.5125,10.90.50.59,1972021163,491756,0.418375,-0.5956,0.5791,27.8168,37.96385,-97.564725,speech
1778683092.5249999,10.90.50.59,1972030946,491759,0.4192775,-0.5940799999999999,0.5734699999999999,28.318800000000003,35.638425,-99.6063425,speech
1778683092.5375,10.90.50.59,1972040729,491761,0.42018000000000005,-0.59256,0.56784,28.820800000000002,33.313,-101.64796,speech
1778683092.5500002,10.90.50.59,1972053238,491764,0.42315,-0.5927,0.5722499999999999,31.12795,32.62325,-103.85135,speech
1778683092.5625,10.90.50.59,1972059255,491766,0.4307,-0.5942,0.5888,32.3486,33.1421,-104.6143,speech
1778683092.575,10.90.50.59,1972068273,491768,0.44125000000000003,-0.6026812500000001,0.6025625,33.45106875,37.12845625,-104.54179375000001,speech
1778683092.5875,10.90.50.59,1972077291,491770,0.4518,-0.6111625,0.616325,34.5535375,41.1148125,-104.46928750000001,speech
1778683092.6,10.90.50.59,1972099622,491776,0.42493333333333333,-0.6085333333333333,0.6338333333333334,36.15313333333334,51.96126666666667,-103.47493333333334,speech
1778683092.6125,10.90.50.59,1972113116,491780,0.394275,-0.59845,0.6106,35.141025,54.7638,-103.0426,speech
1778683092.625,10.90.50.59,1972125136,491782,0.39095,-0.60185,0.5881000000000001,33.59985,54.07715,-103.6377,speech
1778683092.6374998,10.90.50.59,1972136347,491785,0.3913333333333333,-0.6141666666666666,0.5873666666666667,33.67106666666667,52.91746666666666,-105.06183333333333,speech
1778683092.6499999,10.90.50.59,1972147524,491788,0.37390000000000007,-0.6265666666666667,0.6108666666666667,35.01383333333333,49.9064,-106.6691,speech
1778683092.6625001,10.90.50.59,1972160081,491791,0.3408333333333333,-0.6195666666666667,0.6435,36.132799999999996,44.49463333333333,-108.17463333333335,speech
1778683092.675,10.90.50.59,1972169044,491793,0.3323,-0.6139,0.6713,36.7432,39.6729,-109.8633,speech
1778683092.6875,10.90.50.59,1972183466,491797,0.35862857142857146,-0.5961,0.6782857142857143,33.473414285714284,32.871785714285714,-110.09870000000001,speech
1778683092.7,10.90.50.59,1972205285,491802,0.39265,-0.5797,0.6523,26.733400000000003,34.5001,-107.4829,speech
1778683092.7124999,10.90.50.59,1972217089,491806,0.3981,-0.57155,0.64925,23.040799999999997,39.032,-105.13305,speech
1778683092.725,10.90.50.59,1972227870,491808,0.4069,-0.5669666666666667,0.6657000000000001,20.996100000000002,43.904599999999995,-102.98666666666668,speech
1778683092.7375,10.90.50.59,1972241695,491812,0.425225,-0.566075,0.6963,16.830424999999998,53.115849999999995,-99.395775,speech
1778683092.7500002,10.90.50.59,1972257418,491816,0.41315,-0.5783499999999999,0.7184,13.595600000000001,61.203,-95.91675000000001,speech
1778683092.7625,10.90.50.59,1972267433,491818,0.3677,-0.5768,0.7299,11.9019,61.7065,-94.6655,speech
1778683092.775,10.90.50.59,1972275279,491820,0.35502857142857147,-0.5683928571428571,0.7325071428571428,10.729128571428571,56.48365,-95.77722142857144,speech
1778683092.7875001,10.90.50.59,1972283125,491822,0.34235714285714286,-0.5599857142857143,0.7351142857142856,9.556357142857141,51.2608,-96.88894285714287,speech
1778683092.8,10.90.50.59,1972307017,491828,0.38318,-0.5375,0.7152000000000001,5.67626,33.6548,-100.65918,speech
1778683092.8125,10.90.50.59,1972318874,491831,0.4085,-0.528,0.7368,1.8311,30.7617,-101.1963,speech
1778683092.825,10.90.50.59,1972325518,491832,0.4152,-0.5290999999999999,0.75985,-0.88505,32.22655,-100.21975,speech
1778683092.8374999,10.90.50.59,1972336992,491836,0.417525,-0.5521750000000001,0.8118,-7.2021500000000005,38.62,-96.43555,speech
1778683092.85,10.90.50.59,1972351414,491839,0.3988333333333333,-0.5735,0.8714333333333334,-12.410499999999999,48.238099999999996,-91.38999999999999,speech
1778683092.8625002,10.90.50.59,1972365486,491842,0.3609,-0.545025,0.8999,-13.671875,55.37415,-87.89065,speech
1778683092.875,10.90.50.59,1972375427,491845,0.34355,-0.5160875,0.8867583333333333,-13.015754166666667,54.690041666666666,-86.03924166666667,speech
1778683092.8875,10.90.50.59,1972385369,491848,0.3262,-0.48714999999999997,0.8736166666666666,-12.359633333333333,54.00593333333333,-84.18783333333333,speech
1778683092.9,10.90.50.59,1972404904,491852,0.3062,-0.462775,0.812075,-7.446275,45.440675,-83.221425,speech
1778683092.9125,10.90.50.59,1972416890,491856,0.31355,-0.46099999999999997,0.7872,-3.3264000000000005,38.26905,-82.91624999999999,speech
1778683092.925,10.90.50.59,1972427576,491858,0.3222333333333333,-0.4585666666666666,0.7966000000000001,0.3255333333333334,33.508266666666664,-81.7871,speech
1778683092.9375,10.90.50.59,1972438860,491861,0.33770000000000006,-0.4629666666666667,0.8297,3.3366000000000002,29.561366666666668,-79.46776666666666,speech
1778683092.95,10.90.50.59,1972451959,491864,0.35169999999999996,-0.4732,0.8424333333333333,5.411766666666666,28.361033333333335,-75.6429,speech
1778683092.9625,10.90.50.59,1972463035,491867,0.3537333333333333,-0.4759333333333333,0.8422333333333333,7.466633333333333,27.89306666666667,-71.0449,speech
1778683092.9750001,10.90.50.59,1972470875,491869,0.3526,-0.4743,0.8425,9.0942,27.2217,-68.1152,speech
1778683092.9875,10.90.50.59,1972483115,491872,0.34843999999999997,-0.45652,0.8306000000000001,10.900879999999999,23.2178,-64.0869,speech
1778683093.0,10.90.50.59,1972498856,491876,0.3541666666666667,-0.4396333333333333,0.7918,11.576333333333332,18.066399999999998,-59.4686,speech
1778683093.0125,10.90.50.59,1972512754,491880,0.372675,-0.431775,0.7573,13.04625,18.7988,-55.862425,speech
1778683093.0249999,10.90.50.59,1972527136,491883,0.34276666666666666,-0.42596666666666666,0.7378333333333332,14.445,17.2119,-54.178866666666664,speech
1778683093.0375,10.90.50.59,1972538836,491886,0.32793333333333335,-0.42586666666666667,0.7537666666666666,16.031899999999997,9.7046,-55.54196666666667,speech
1778683093.05,10.90.50.59,1972549405,491888,0.35215,-0.43684999999999996,0.77085,15.7776,1.3428,-57.251000000000005,speech
1778683093.0625,10.90.50.59,1972561759,491892,0.39392499999999997,-0.448925,0.77735,15.04515,-4.669175,-57.1289,speech
1778683093.075,10.90.50.59,1972572740,491894,0.41715,-0.4566,0.77105,13.91605,-5.64575,-55.63355,speech
1778683093.0875,10.90.50.59,1972583813,491897,0.4104638888888889,-0.4552777777777778,0.7725361111111111,12.556302777777777,-2.0599416666666666,-53.271836111111114,speech
1778683093.1,10.90.50.59,1972594886,491900,0.4037777777777778,-0.4539555555555556,0.7740222222222223,11.196555555555555,1.5258666666666667,-50.91012222222222,speech
1778683093.1125,10.90.50.59,1972620916,491906,0.344,-0.471625,0.742875,6.4697249999999995,6.958025,-47.515875,speech
1778683093.125,10.90.50.59,1972630643,491909,0.3077,-0.4748,0.7353,7.2021,4.3335,-48.2788,speech
1778683093.1374998,10.90.50.59,1972636762,491910,0.30855,-0.4744,0.7444500000000001,7.14115,0.82395,-49.22485,speech
1778683093.15,10.90.50.59,1972646682,491913,0.3134666666666666,-0.48089999999999994,0.7693,7.344566666666666,-3.1941666666666664,-50.048833333333334,speech
1778683093.1625001,10.90.50.59,1972661583,491916,0.33435,-0.495675,0.806825,8.83485,-4.348775,-48.812875,speech
1778683093.175,10.90.50.59,1972674628,491920,0.32549999999999996,-0.4998666666666667,0.8275666666666667,11.027000000000001,-4.475933333333333,-46.915699999999994,speech
1778683093.1875,10.90.50.59,1972686644,491923,0.3193333333333333,-0.4929666666666667,0.8354333333333334,13.916000000000002,-4.659,-43.51806666666667,speech
1778683093.2,10.90.50.59,1972702625,491927,0.3071,-0.4829,0.8554600000000001,15.75928,-4.7119,-41.21094,speech
1778683093.2124999,10.90.50.59,1972716584,491930,0.26554999999999995,-0.4925,0.8525,16.5405,-6.8665,-39.48975,speech
1778683093.225,10.90.50.59,1972726943,491933,0.2511333333333334,-0.5042333333333333,0.8535333333333334,18.0664,-10.2539,-38.6149,speech
1778683093.2375,10.90.50.59,1972738549,491936,0.2527333333333333,-0.5155666666666666,0.8484333333333334,19.470200000000002,-15.482566666666665,-37.59766666666667,speech
1778683093.2499998,10.90.50.59,1972748599,491938,0.25165000000000004,-0.51995,0.8509,21.27075,-20.44675,-37.4451,speech
1778683093.2625,10.90.50.59,1972764103,491942,0.27308,-0.52426,0.8423999999999999,22.83938,-24.121100000000002,-35.88868,speech
1778683093.275,10.90.50.59,1972778562,491946,0.25323333333333337,-0.5204333333333333,0.8292999999999999,24.007166666666667,-22.4813,-32.79623333333333,speech
1778683093.2875001,10.90.50.59,1972786563,491948,0.2470962962962963,-0.5197888888888889,0.8247148148148148,23.245355555555555,-23.07582222222222,-31.20931851851852,speech
1778683093.3,10.90.50.59,1972794563,491950,0.24095925925925926,-0.5191444444444444,0.8201296296296295,22.483544444444444,-23.670344444444446,-29.622403703703704,speech
1778683093.3125,10.90.50.59,1972802564,491952,0.2348222222222222,-0.5185,0.8155444444444444,21.721733333333333,-24.264866666666666,-28.03548888888889,speech
1778683093.325,10.90.50.59,1972826865,491958,0.2546333333333333,-0.5396666666666666,0.8121,18.188466666666667,-25.939933333333332,-25.08543333333333,speech
1778683093.3374999,10.90.50.59,1972838429,491961,0.25053333333333333,-0.5491,0.8099333333333334,16.092933333333335,-27.933766666666667,-25.24823333333333,speech
1778683093.3500001,10.90.50.59,1972848458,491964,0.24455,-0.55735,0.7968,14.80105,-29.38845,-26.09255,speech
1778683093.3625002,10.90.50.59,1972856235,491965,0.256645,-0.575715,0.82009,15.835575,-28.359994999999998,-27.828995,speech
1778683093.375,10.90.50.59,1972864012,491967,0.26874,-0.5940799999999999,0.84338,16.8701,-27.33154,-29.565440000000002,speech
1778683093.3875,10.90.50.59,1972876468,491970,0.27745,-0.61515,0.8854500000000001,20.4773,-21.2402,-31.86035,speech
1778683093.4,10.90.50.59,1972894622,491975,0.2608,-0.6232571428571428,0.9115285714285715,24.047857142857143,-18.947042857142858,-35.18241428571429,speech
1778683093.4125,10.90.50.59,1972912534,491980,0.23795,-0.6510499999999999,0.9299,25.2991,-17.97485,-35.0952,speech
1778683093.425,10.90.50.59,1972926156,491982,0.21745,-0.65575,0.8957,27.923575,-17.288225,-32.577525,speech
1778683093.4375,10.90.50.59,1972940466,491986,0.179,-0.61865,0.8535999999999999,31.646725,-17.150875,-30.014025,speech
1778683093.4499998,10.90.50.59,1972949963,491989,0.16548000000000002,-0.610055,0.8438399999999999,30.7159425,-22.5036575,-30.0766025,speech
1778683093.4625,10.90.50.59,1972959460,491991,0.15196,-0.60146,0.8340799999999999,29.78516,-27.85644,-30.13918,speech
1778683093.4750001,10.90.50.59,1972967934,491993,0.150955,-0.60453,0.830465,29.0298425,-33.489982499999996,-29.6035775,speech
1778683093.4875,10.90.50.59,1972976408,491996,0.14995,-0.6076,0.82685,28.274525,-39.123525,-29.067975,speech
1778683093.5,10.90.50.59,1972994747,492000,0.13113999999999998,-0.58324,0.82872,26.80666,-45.068380000000005,-26.0254,speech
1778683093.5125,10.90.50.59,1973018603,492006,0.1579142857142857,-0.5718571428571428,0.8138857142857143,22.059857142857144,-40.09137142857143,-19.470200000000002,speech
1778683093.5249999,10.90.50.59,1973027465,492008,0.16248214285714285,-0.5702035714285714,0.8192678571428571,20.978653571428573,-36.906660714285714,-17.501825,speech
1778683093.5375,10.90.50.59,1973036327,492010,0.16704999999999998,-0.56855,0.82465,19.89745,-33.72195,-15.53345,speech
1778683093.5500002,10.90.50.59,1973044337,492012,0.1761,-0.56655,0.83185,18.890349999999998,-32.6233,-15.13675,speech
1778683093.5625,10.90.50.59,1973057644,492016,0.1789,-0.559625,0.83615,17.730725,-31.2805,-15.243549999999999,speech
1778683093.575,10.90.50.59,1973072665,492020,0.18945,-0.5539,0.84595,18.005375,-26.7334,-15.686025,speech
1778683093.5875,10.90.50.59,1973085314,492022,0.17315,-0.5520499999999999,0.85545,19.6533,-21.27075,-15.38085,speech
1778683093.6,10.90.50.59,1973092797,492024,0.155225,-0.5472583333333333,0.8585666666666667,21.026608333333336,-20.09075,-15.502916666666668,speech
1778683093.6125,10.90.50.59,1973100280,492026,0.1373,-0.5424666666666667,0.8616833333333332,22.399916666666666,-18.91075,-15.624983333333333,speech
1778683093.625,10.90.50.59,1973120760,492032,0.11175,-0.53095,0.852125,25.6958,-23.1781,-15.075675,speech
1778683093.6374998,10.90.50.59,1973136289,492036,0.114375,-0.521825,0.8283,28.1372,-29.220575,-13.336200000000002,speech
1778683093.6499999,10.90.50.59,1973154804,492040,0.13142,-0.52674,0.83934,29.39454,-36.755359999999996,-10.42478,speech
1778683093.6625001,10.90.50.59,1973166440,492043,0.1429,-0.5449,0.8396,29.2969,-41.748,-8.606,speech
1778683093.675,10.90.50.59,1973174243,492045,0.15216666666666667,-0.5617,0.8414333333333334,29.886866666666666,-43.965666666666664,-7.914233333333333,speech
1778683093.6875,10.90.50.59,1973186542,492048,0.16469999999999999,-0.5837,0.8369333333333334,30.7617,-45.81706666666667,-6.367999999999999,speech
1778683093.7,10.90.50.59,1973196410,492050,0.19167857142857142,-0.5951071428571428,0.822302380952381,31.254357142857142,-44.01796904761905,-5.4204928571428574,speech
1778683093.7124999,10.90.50.59,1973206278,492053,0.21865714285714286,-0.6065142857142857,0.8076714285714285,31.747014285714283,-42.21887142857143,-4.472985714285715,speech
1778683093.725,10.90.50.59,1973226102,492058,0.20783333333333331,-0.6069666666666667,0.8064333333333332,32.430033333333334,-37.638333333333335,-4.1097,speech
1778683093.7375,10.90.50.59,1973240411,492062,0.1833,-0.5968,0.8117,31.188975,-38.92515,-4.211425,speech
1778683093.7500002,10.90.50.59,1973256154,492066,0.165825,-0.60205,0.81235,29.067975,-39.794925,-4.425075,speech
1778683093.7625,10.90.50.59,1973267017,492068,0.1553,-0.6093,0.811,28.5034,-39.2456,-4.5166,speech
1778683093.775,10.90.50.59,1973274656,492070,0.14873333333333333,-0.6013000000000001,0.8093333333333333,28.889966666666666,-38.73696666666667,-4.598,speech
1778683093.7875001,10.90.50.59,1973288147,492074,0.16585,-0.592775,0.803825,28.945925,-37.30775,-5.3711,idle
1778683093.8,10.90.50.59,1973298125,492076,0.1768,-0.6044,0.801,28.3203,-34.9121,-6.5308,idle
1778683093.8125,10.90.50.59,1973310281,492079,0.14958,-0.6142,0.7303200000000001,27.502460000000003,-32.54394,-6.59178,idle
1778683093.825,10.90.50.59,1973326092,492083,0.16369999999999998,-0.6122,0.7009,25.71613333333333,-33.22346666666667,-8.4432,idle
1778683093.8374999,10.90.50.59,1973340557,492086,0.219225,-0.5912499999999999,0.757525,23.315425,-31.1432,-11.352525,idle
1778683093.85,10.90.50.59,1973352075,492090,0.19219999999999998,-0.5909,0.83955,21.6675,-25.8789,-13.45825,idle
1778683093.8625002,10.90.50.59,1973362091,492092,0.1396,-0.5955666666666667,0.8884333333333334,20.8537,-20.975733333333334,-14.302566666666666,idle
1778683093.875,10.90.50.59,1973373678,492094,0.1109,-0.601,0.9001,20.59935,-18.280050000000003,-14.16015,idle
1778683093.8875,10.90.50.59,1973384279,492098,0.115975,-0.596125,0.8758,21.1334,-19.8822,-13.504025,idle
1778683093.9,10.90.50.59,1973400003,492102,0.13024999999999998,-0.598375,0.8559,21.698,-27.00805,-12.512225,idle
1778683093.9125,10.90.50.59,1973409071,492104,0.126805,-0.6206075,0.8421799999999999,22.207639999999998,-30.862405000000003,-12.3840425,idle
1778683093.925,10.90.50.59,1973418138,492106,0.12336,-0.64284,0.82846,22.71728,-34.71676,-12.25586,idle
1778683093.9375,10.90.50.59,1973438227,492111,0.1002,-0.6613,0.7820199999999999,26.61132,-34.79004,-12.29246,idle
1778683093.95,10.90.50.59,1973450050,492114,0.066,-0.6633,0.7666,28.3813,-32.7148,-12.6953,idle
1778683093.9625,10.90.50.59,1973459970,492116,0.045200000000000004,-0.660825,0.782225,29.861475,-32.073975,-13.1073,idle
1778683093.9750001,10.90.50.59,1973473222,492120,0.0383,-0.64655,0.8161,31.25,-32.13505,-14.2212,idle
1778683093.9875,10.90.50.59,1973486394,492123,0.058899999999999994,-0.63504,0.84794,31.494139999999998,-32.60498,-16.25976,idle
1778683094.0,10.90.50.59,1973505930,492128,0.07256,-0.61146,0.8114800000000001,32.019040000000004,-31.82372,-18.847640000000002,idle
1778683094.0125,10.90.50.59,1973517838,492131,0.084,-0.5991,0.7915,32.2266,-30.4565,-20.6299,idle
1778683094.0249999,10.90.50.59,1973525935,492133,0.08413333333333334,-0.5983999999999999,0.8013,31.84,-28.2389,-21.5454,idle
1778683094.0375,10.90.50.59,1973535905,492136,0.07575,-0.59625,0.8104,31.25,-25.6958,-22.82715,idle
1778683094.05,10.90.50.59,1973548083,492138,0.09305,-0.602975,0.79845,30.85325,-25.665275,-24.59715,idle
1778683094.0625,10.90.50.59,1973561848,492142,0.13873333333333335,-0.6288,0.7325333333333334,30.192066666666665,-26.2248,-26.611333333333334,idle
1778683094.075,10.90.50.59,1973573488,492144,0.09285,-0.63765,0.7261500000000001,31.3721,-23.742649999999998,-25.66525,idle
1778683094.0875,10.90.50.59,1973588656,492148,0.05478333333333333,-0.5896666666666667,0.7542833333333334,33.19296666666667,-23.132316666666668,-25.177016666666663,idle
1778683094.1,10.90.50.59,1973597726,492151,0.06344305555555556,-0.5901444444444445,0.7703805555555556,32.69535694444445,-24.068190277777777,-24.739590277777776,idle
1778683094.1125,10.90.50.59,1973606796,492153,0.07210277777777778,-0.5906222222222222,0.7864777777777778,32.197747222222226,-25.00406388888889,-24.302163888888888,idle
1778683094.125,10.90.50.59,1973615866,492156,0.0807625,-0.5911,0.802575,31.7001375,-25.9399375,-23.8647375,idle
1778683094.1374998,10.90.50.59,1973642012,492162,0.09242,-0.6279600000000001,0.8224600000000001,32.34864,-30.95704,-21.83838,idle
1778683094.15,10.90.50.59,1973653833,492165,0.075,-0.6406,0.8378,32.4097,-31.8604,-20.9351,idle
1778683094.1625001,10.90.50.59,1973661799,492167,0.07556666666666667,-0.6497666666666667,0.8273666666666667,32.89796666666667,-31.616200000000003,-20.446766666666665,idle
1778683094.175,10.90.50.59,1973672984,492170,0.05865,-0.6475500000000001,0.8182,33.78295,-31.341549999999998,-19.71435,idle
1778683094.1875,10.90.50.59,1973687870,492173,0.03392,-0.62626,0.7903399999999999,34.63136,-34.59472,-18.64014,idle
1778683094.2,10.90.50.59,1973699774,492176,0.0417,-0.6011,0.77435,35.15625,-38.66575,-18.432650000000002,idle
1778683094.2124999,10.90.50.59,1973706747,492178,0.0528,-0.5951,0.79,34.9121,-39.4897,-18.7378,idle
1778683094.225,10.90.50.59,1973715743,492180,0.073675,-0.6035,0.8268,33.355725,-40.481575,-19.180274999999998,idle
1778683094.2375,10.90.50.59,1973733994,492185,0.077,-0.62812,0.8408200000000001,31.27442,-40.29542,-19.88524,idle
1778683094.2499998,10.90.50.59,1973749734,492189,0.0507,-0.6325,0.8019,30.334466666666668,-39.815266666666666,-21.280933333333333,idle
1778683094.2625,10.90.50.59,1973763976,492192,0.045625,-0.6321249999999999,0.797675,30.807525000000002,-39.306650000000005,-22.995,idle
1778683094.275,10.90.50.59,1973776665,492196,0.0545,-0.6385000000000001,0.8110999999999999,31.158450000000002,-38.75735,-24.81075,idle
1778683094.2875001,10.90.50.59,1973788177,492198,0.054175,-0.6426,0.8019499999999999,32.562275,-37.719725,-26.062025,idle
1778683094.3,10.90.50.59,1973802134,492202,0.06266666666666666,-0.6243,0.7915333333333333,33.81346666666666,-36.153166666666664,-27.343733333333333,idle
1778683094.3125,10.90.50.59,1973810891,492204,0.06685833333333333,-0.6155999999999999,0.7883833333333333,33.905033333333336,-35.222375,-27.54719166666667,idle
1778683094.325,10.90.50.59,1973819648,492206,0.07105,-0.6069,0.7852333333333333,33.9966,-34.291583333333335,-27.750650000000004,idle
1778683094.3374999,10.90.50.59,1973840181,492212,0.0786,-0.60745,0.8027500000000001,33.142075,-33.5541,-27.725225000000002,idle
1778683094.3500001,10.90.50.59,1973851632,492214,0.07085,-0.6125,0.7985,32.8674,-34.45435,-26.947,idle
1778683094.3625002,10.90.50.59,1973862216,492217,0.065,-0.616,0.8089333333333334,32.49106666666666,-35.56313333333333,-27.384433333333334,idle
1778683094.375,10.90.50.59,1973871922,492220,0.06195,-0.62335,0.82115,32.04345,-36.254900000000006,-27.43535,idle
1778683094.3875,10.90.50.59,1973877653,492221,0.0574,-0.631,0.8283,32.2876,-36.6821,-27.4658,idle
1778683094.4,10.90.50.59,1973890582,492224,0.0608,-0.6380600000000001,0.81358,31.38426,-37.74414,-27.66114,idle
1778683094.4125,10.90.50.59,1973903996,492228,0.05935,-0.62555,0.7907,31.5857,-36.926249999999996,-27.4658,idle
1778683094.425,10.90.50.59,1973909648,492229,0.0574,-0.6201,0.8012,31.1279,-36.1328,-27.771,idle
1778683094.4375,10.90.50.59,1973921688,492232,0.05954545454545454,-0.6233090909090909,0.8067818181818183,30.523118181818184,-36.11893181818182,-28.17049090909091,idle
1778683094.4499998,10.90.50.59,1973933728,492235,0.06169090909090909,-0.6265181818181819,0.8123636363636364,29.918336363636364,-36.10506363636364,-28.569981818181816,idle
1778683094.4625,10.90.50.59,1973961799,492242,0.06426666666666665,-0.6254,0.7969666666666667,29.215500000000002,-36.37696666666667,-29.154466666666668,idle
1778683094.4750001,10.90.50.59,1973971586,492244,0.07035,-0.6242,0.7988999999999999,28.8696,-35.7361,-29.23585,idle
1778683094.4875,10.90.50.59,1973985624,492248,0.07124,-0.62732,0.79188,28.857440000000004,-35.21728,-29.27244,idle
1778683094.5,10.90.50.59,1974003740,492252,0.057225,-0.62615,0.792375,29.5868,-35.339349999999996,-29.068,idle
1778683094.5125,10.90.50.59,1974011602,492254,0.0626125,-0.6269750000000001,0.795775,29.655475000000003,-36.0259875,-28.6941625,idle
1778683094.5249999,10.90.50.59,1974019464,492256,0.068,-0.6278,0.799175,29.72415,-36.712625,-28.320325,idle
1778683094.5375,10.90.50.59,1974037805,492261,0.08452,-0.62664,0.78702,30.432119999999998,-37.95164,-26.51368,idle
1778683094.5500002,10.90.50.59,1974053437,492265,0.08426666666666667,-0.6176333333333334,0.7750333333333334,31.819666666666667,-38.51316666666667,-25.0244,idle
1778683094.5625,10.90.50.59,1974069749,492269,0.08112,-0.6110599999999999,0.7736,32.70262,-37.438959999999994,-24.53614,idle
1778683094.575,10.90.50.59,1974077763,492271,0.07955999999999999,-0.6148633333333333,0.7800833333333334,32.69854333333333,-36.25691333333333,-24.65822,idle
1778683094.5875,10.90.50.59,1974085777,492273,0.078,-0.6186666666666667,0.7865666666666667,32.69446666666666,-35.07486666666667,-24.7803,idle
1778683094.6,10.90.50.59,1974101873,492277,0.058399999999999994,-0.63634,0.80996,31.76268,-33.8623,-25.708019999999998,idle
1778683094.6125,10.90.50.59,1974113469,492280,0.0496,-0.6489,0.812,30.5786,-34.3018,-26.4282,idle
1778683094.625,10.90.50.59,1974122511,492282,0.05480625,-0.6480375,0.8124562500000001,30.07506875,-34.52684375,-26.80969375,idle
1778683094.6374998,10.90.50.59,1974131554,492284,0.060012499999999996,-0.647175,0.8129125,29.5715375,-34.7518875,-27.1911875,idle
1778683094.6499999,10.90.50.59,1974151374,492290,0.07185,-0.63115,0.8031999999999999,28.5034,-35.217299999999994,-27.3438,idle
1778683094.6625001,10.90.50.59,1974162308,492292,0.07703333333333333,-0.6299,0.7927666666666667,28.157533333333333,-35.74626666666666,-27.201333333333334,idle
1778683094.675,10.90.50.59,1974173394,492295,0.08623333333333333,-0.6295666666666667,0.7875666666666667,28.3203,-35.725899999999996,-26.713066666666666,idle
1778683094.6875,10.90.50.59,1974186339,492298,0.09323333333333333,-0.6341333333333333,0.7904,28.72723333333333,-34.0983,-26.387533333333334,idle
1778683094.7,10.90.50.59,1974200163,492302,0.07502500000000001,-0.6349,0.7757000000000001,29.800425,-32.8064,-25.71105,idle
1778683094.7124999,10.90.50.59,1974211356,492304,0.06525,-0.6353,0.7847500000000001,30.8838,-32.9895,-25.60425,idle
1778683094.725,10.90.50.59,1974217439,492306,0.066,-0.644,0.7856,30.8838,-33.4473,-25.5127,idle
1778683094.7375,10.90.50.59,1974233267,492310,0.06951428571428572,-0.6444428571428571,0.7815285714285715,32.6538,-34.8598,-25.085442857142855,idle
1778683094.7500002,10.90.50.59,1974251356,492314,0.06085,-0.6315,0.77215,34.11865,-35.858149999999995,-24.90235,idle
1778683094.7625,10.90.50.59,1974259714,492316,0.059050000000000005,-0.6254,0.7766500000000001,34.2102,-35.858149999999995,-25.177,idle
1778683094.775,10.90.50.59,1974271326,492320,0.0684,-0.636575,0.7928,34.561175,-35.3699,-25.802599999999998,idle
1778683094.7875001,10.90.50.59,1974289229,492324,0.0586,-0.638725,0.79025,35.0647,-35.3546,-26.077275,idle
1778683094.8,10.90.50.59,1974301309,492326,0.0557,-0.6413,0.789,35.5225,-35.7056,-26.2451,idle
1778683094.8125,10.90.50.59,1974311262,492328,0.0658,-0.63245,0.77515,35.980225,-36.346450000000004,-25.848399999999998,idle
1778683094.825,10.90.50.59,1974321330,492331,0.07025,-0.6290166666666666,0.7825166666666667,36.05652083333333,-36.610933333333335,-25.543216666666666,idle
1778683094.8374999,10.90.50.59,1974331397,492334,0.0747,-0.6255833333333333,0.7898833333333334,36.13281666666666,-36.875416666666666,-25.238033333333334,idle
1778683094.85,10.90.50.59,1974353455,492339,0.07106,-0.6420199999999999,0.79992,36.389140000000005,-37.53662,-24.438480000000002,idle
1778683094.8625002,10.90.50.59,1974365284,492342,0.0704,-0.6537,0.8034,36.2549,-38.269,-24.1089,idle
1778683094.875,10.90.50.59,1974375195,492344,0.062175,-0.6524,0.7954249999999999,36.804225,-38.787825,-23.71215,idle
1778683094.8875,10.90.50.59,1974387579,492348,0.06585625,-0.64213125,0.79031875,37.128468749999996,-39.22270625,-23.586268750000002,idle
1778683094.9,10.90.50.59,1974399964,492350,0.0695375,-0.6318625,0.7852125,37.4527125,-39.657587500000005,-23.4603875,idle
1778683094.9125,10.90.50.59,1974409290,492353,0.07006875,-0.62463125,0.77940625,37.76930625,-39.421093750000004,-23.50999375,idle
1778683094.925,10.90.50.59,1974418617,492355,0.0706,-0.6174,0.7736,38.0859,-39.1846,-23.5596,idle
1778683094.9375,10.90.50.59,1974433183,492359,0.08065714285714286,-0.6211,0.7939428571428572,38.12081428571428,-37.963857142857144,-24.379185714285715,idle
1778683094.95,10.90.50.59,1974457530,492365,0.05791999999999999,-0.63558,0.7968200000000001,36.98728,-35.64454,-24.902340000000002,idle
1778683094.9625,10.90.50.59,1974465332,492367,0.058026666666666664,-0.6317733333333333,0.8000433333333333,36.95677333333333,-36.000569999999996,-25.207520000000002,idle
1778683094.9750001,10.90.50.59,1974473134,492369,0.058133333333333335,-0.6279666666666667,0.8032666666666666,36.92626666666667,-36.3566,-25.5127,idle
1778683094.9875,10.90.50.59,1974485993,492372,0.07766666666666666,-0.6303,0.8064333333333332,36.41766666666667,-36.8042,-25.594099999999997,idle
1778683095.0,10.90.50.59,1974499186,492376,0.07655,-0.621825,0.801675,36.270125,-36.880475000000004,-24.96335,idle
1778683095.0125,10.90.50.59,1974511028,492378,0.07575,-0.6213500000000001,0.7938000000000001,36.19385,-37.200900000000004,-24.8108,idle
1778683095.0249999,10.90.50.59,1974519206,492380,0.07535,-0.6232500000000001,0.7948500000000001,36.31595,-37.1704,-24.871850000000002,idle
1778683095.0375,10.90.50.59,1974533004,492384,0.07376,-0.6181,0.7871,36.47462,-36.70652,-24.70702,idle
1778683095.05,10.90.50.59,1974547475,492388,0.06695,-0.6242,0.8094,35.827600000000004,-35.614000000000004,-25.268549999999998,idle
1778683095.0625,10.90.50.59,1974559032,492390,0.067675,-0.633,0.806675,35.690325,-35.430925,-25.482174999999998,idle
1778683095.075,10.90.50.59,1974573036,492394,0.062400000000000004,-0.6219,0.7869,35.725899999999996,-35.46143333333333,-25.3703,idle
1778683095.0875,10.90.50.59,1974587316,492398,0.072275,-0.611075,0.7925,35.6598,-34.866325,-26.016225,idle
1778683095.1,10.90.50.59,1974601599,492401,0.07556666666666667,-0.6176333333333334,0.7983666666666666,35.03413333333334,-33.548966666666665,-26.346866666666667,idle
1778683095.1125,10.90.50.59,1974613459,492404,0.0615,-0.6176666666666667,0.7997666666666667,35.05453333333333,-32.81656666666667,-26.7334,idle
1778683095.125,10.90.50.59,1974622952,492406,0.06425,-0.62505,0.80265,34.3628,-32.56225,-27.49635,idle
1778683095.1374998,10.90.50.59,1974637171,492410,0.05998,-0.6310399999999999,0.8013600000000001,34.313959999999994,-32.275400000000005,-27.734360000000002,idle
1778683095.15,10.90.50.59,1974651074,492414,0.0539,-0.6292,0.79975,34.332300000000004,-32.56225,-27.618450000000003,idle
1778683095.1625001,10.90.50.59,1974662881,492416,0.068025,-0.619,0.792125,34.8053,-33.782975,-26.97755,idle
1778683095.175,10.90.50.59,1974675484,492420,0.07955000000000001,-0.6082,0.8047500000000001,35.00365,-34.668000000000006,-26.3977,idle
1778683095.1875,10.90.50.59,1974685029,492422,0.08366666666666667,-0.6159,0.8067666666666667,34.4238,-35.25796666666667,-25.8382,idle
1778683095.2,10.90.50.59,1974699396,492426,0.074225,-0.6137,0.799625,34.072874999999996,-35.308825,-24.96335,idle
1778683095.2124999,10.90.50.59,1974715439,492430,0.0723,-0.619375,0.80585,33.2794,-35.217299999999994,-24.276725,idle
1778683095.225,10.90.50.59,1974726913,492432,0.0683,-0.6246499999999999,0.8160000000000001,32.4402,-34.973150000000004,-23.86475,idle
1778683095.2375,10.90.50.59,1974732950,492434,0.0648,-0.6279,0.8134,32.0435,-35.2783,-23.7427,idle
1778683095.2499998,10.90.50.59,1974747055,492438,0.06448333333333334,-0.6244833333333334,0.8040166666666666,31.9519,-35.085033333333335,-24.07835,idle
1778683095.2625,10.90.50.59,1974764853,492442,0.06280000000000001,-0.6242666666666666,0.8087,30.985500000000002,-33.8135,-24.963399999999996,idle
1778683095.275,10.90.50.59,1974777592,492445,0.055900000000000005,-0.6309333333333333,0.8013666666666667,31.148266666666668,-32.735166666666665,-25.492366666666666,idle
1778683095.2875001,10.90.50.59,1974788836,492448,0.043666666666666666,-0.6338666666666667,0.7934666666666667,31.31103333333333,-32.9793,-25.756833333333333,idle
1778683095.3,10.90.50.59,1974800841,492451,0.055799999999999995,-0.6223333333333333,0.7884333333333333,31.96206666666667,-34.627266666666664,-25.309233333333335,idle
1778683095.3125,10.90.50.59,1974813172,492454,0.07436666666666666,-0.6145999999999999,0.7969666666666667,32.24693333333334,-35.6242,-24.8413,idle
1778683095.325,10.90.50.59,1974824773,492457,0.0747,-0.6137,0.7976666666666666,32.51136666666667,-36.051433333333335,-24.088566666666665,idle
1778683095.3374999,10.90.50.59,1974834805,492460,0.0776,-0.6225,0.80635,32.77585,-36.49905,-23.834249999999997,idle
1778683095.3500001,10.90.50.59,1974847056,492462,0.0719,-0.63575,0.805625,32.669075,-36.376975,-23.49855,idle
1778683095.3625002,10.90.50.59,1974860749,492466,0.0572,-0.6383,0.7996,32.71483333333333,-35.909,-23.6206,idle
1778683095.375,10.90.50.59,1974875185,492470,0.051025,-0.6269,0.79175,33.355675000000005,-35.903925,-24.078375,idle
1778683095.3875,10.90.50.59,1974888763,492473,0.056433333333333335,-0.6117666666666667,0.7777,33.48793333333333,-35.196933333333334,-24.943033333333332,idle
1778683095.4,10.90.50.59,1974898707,492476,0.05575,-0.6076,0.79735,33.3862,-33.9661,-26.0315,idle
1778683095.4125,10.90.50.59,1974917941,492480,0.0506,-0.626057142857143,0.8066000000000001,32.30504285714286,-33.813471428571425,-27.544285714285714,idle
1778683095.425,10.90.50.59,1974926348,492482,0.05115,-0.6282285714285716,0.8000750000000001,31.99114642857143,-33.85923571428572,-27.932292857142855,idle
1778683095.4375,10.90.50.59,1974934756,492484,0.051699999999999996,-0.6304000000000001,0.79355,31.67725,-33.905,-28.3203,idle
1778683095.4499998,10.90.50.59,1974946928,492488,0.055575,-0.617025,0.780775,32.44015,-33.966075,-28.244,idle
1778683095.4625,10.90.50.59,1974962691,492492,0.06325,-0.61515,0.7955,32.135,-34.30175,-27.984650000000002,idle
1778683095.4750001,10.90.50.59,1974977030,492495,0.06956666666666667,-0.6165333333333333,0.8043,32.22656666666666,-36.0311,-27.404800000000005,idle
1778683095.4875,10.90.50.59,1974990666,492498,0.07365,-0.62715,0.792125,32.165525,-36.849975,-26.748675,idle
1778683095.5,10.90.50.59,1975006569,492502,0.0623,-0.6221,0.7944666666666667,32.6538,-37.19076666666667,-26.041666666666668,idle
1778683095.5125,10.90.50.59,1975015821,492504,0.07045,-0.62555,0.8054,32.012950000000004,-37.41455,-26.27565,idle
1778683095.5249999,10.90.50.59,1975024623,492507,0.06933333333333334,-0.6269666666666667,0.7982999999999999,31.982433333333336,-36.254866666666665,-26.204433333333338,idle
1778683095.5375,10.90.50.59,1975032718,492509,0.0606,-0.6244,0.8007,31.9214,-35.3394,-26.3672,idle
1778683095.5500002,10.90.50.59,1975050780,492514,0.0493375,-0.6366,0.79935,31.8222125,-35.331725,-27.0996125,idle
1778683095.5625,10.90.50.59,1975062914,492516,0.056543750000000004,-0.6383875000000001,0.8016,31.90995625,-35.617824999999996,-27.69469375,idle
1778683095.575,10.90.50.59,1975075049,492520,0.06375,-0.640175,0.80385,31.997700000000002,-35.903925,-28.289775,idle
1778683095.5875,10.90.50.59,1975090568,492524,0.0716,-0.628775,0.785725,32.867425,-34.927375,-28.244,idle
1778683095.6,10.90.50.59,1975105930,492527,0.0707,-0.6199666666666667,0.7839,33.56933333333333,-33.56936666666667,-28.44236666666667,idle
1778683095.6125,10.90.50.59,1975113963,492529,0.0762,-0.6198,0.798,33.4473,-32.4707,-28.6865,idle
1778683095.625,10.90.50.59,1975122662,492532,0.0751,-0.633725,0.800725,33.294650000000004,-31.036375,-28.884900000000002,idle
1778683095.6374998,10.90.50.59,1975135690,492534,0.062450000000000006,-0.64175,0.79045,33.90505,-30.334449999999997,-28.90015,idle
1778683095.6499999,10.90.50.59,1975144507,492537,0.05786666666666667,-0.6271333333333333,0.7883666666666667,34.423833333333334,-30.78206666666667,-29.012033333333335,idle
1778683095.6625001,10.90.50.59,1975158986,492540,0.070375,-0.6269,0.80035,34.103425,-31.2958,-29.525775,idle
1778683095.675,10.90.50.59,1975172901,492544,0.07613333333333333,-0.6237666666666667,0.7988666666666666,34.139,-30.517566666666667,-29.764833333333332,idle
1778683095.6875,10.90.50.59,1975184494,492547,0.06269999999999999,-0.6198333333333333,0.7906333333333334,33.589666666666666,-29.64276666666667,-30.151366666666664,idle
1778683095.7,10.90.50.59,1975194462,492550,0.05,-0.61835,0.7816000000000001,33.203100000000006,-29.2053,-30.91435,idle
1778683095.7124999,10.90.50.59,1975209619,492553,0.0398,-0.6086199999999999,0.7943800000000001,31.92138,-29.01614,-31.81154,idle
1778683095.725,10.90.50.59,1975224586,492557,0.040100000000000004,-0.6325666666666666,0.8019666666666666,29.235866666666666,-29.418966666666666,-32.246900000000004,idle
1778683095.7375,10.90.50.59,1975237172,492560,0.031466666666666664,-0.6312666666666668,0.8114666666666667,29.398600000000002,-31.494133333333334,-32.04343333333333,idle
1778683095.7500002,10.90.50.59,1975246855,492562,0.04643333333333333,-0.6283690476190477,0.8039547619047619,29.0818,-34.436909523809526,-31.175866666666664,idle
1778683095.7625,10.90.50.59,1975256538,492565,0.0614,-0.6254714285714286,0.7964428571428571,28.765000000000004,-37.37968571428571,-30.3083,idle
1778683095.775,10.90.50.59,1975276429,492570,0.07633333333333334,-0.6186666666666666,0.8086333333333333,27.486166666666666,-39.85596666666667,-28.6662,idle
1778683095.7875001,10.90.50.59,1975288370,492573,0.060599999999999994,-0.6343,0.8053666666666667,27.140299999999996,-40.730799999999995,-27.79133333333333,idle
1778683095.8,10.90.50.59,1975300808,492576,0.04056666666666667,-0.6546666666666666,0.7961666666666667,27.567533333333333,-42.114266666666666,-27.85236666666667,idle
1778683095.8125,10.90.50.59,1975310442,492578,0.038650000000000004,-0.65665,0.76915,28.625500000000002,-43.243449999999996,-28.01515,idle
1778683095.825,10.90.50.59,1975320497,492581,0.06596666666666667,-0.6412,0.7662333333333334,30.273466666666668,-43.6401,-28.727233333333334,idle
1778683095.8374999,10.90.50.59,1975332921,492584,0.09079999999999999,-0.6380666666666667,0.7667666666666667,31.7993,-41.68703333333334,-29.805533333333333,idle
1778683095.85,10.90.50.59,1975343809,492587,0.08041875,-0.6363083333333333,0.7691958333333333,33.05051875,-40.12299791666667,-30.836754166666665,idle
1778683095.8625002,10.90.50.59,1975354697,492590,0.0700375,-0.63455,0.771625,34.3017375,-38.5589625,-31.867975,idle
1778683095.875,10.90.50.59,1975376325,492595,0.057333333333333326,-0.625,0.7667,36.4787,-37.2925,-34.1797,idle
1778683095.8875,10.90.50.59,1975388950,492598,0.07386666666666668,-0.6229,0.7881333333333332,36.5804,-35.8887,-35.237633333333335,idle
1778683095.9,10.90.50.59,1975404473,492602,0.07954,-0.6366400000000001,0.80976,35.86426,-35.63232,-36.047360000000005,idle
1778683095.9125,10.90.50.59,1975410892,492604,0.07497000000000001,-0.64337,0.81183,35.44923,-36.18776,-36.27318,idle
1778683095.925,10.90.50.59,1975417310,492605,0.0704,-0.6501,0.8139,35.0342,-36.7432,-36.499,idle
1778683095.9375,10.90.50.59,1975432628,492609,0.07220000000000001,-0.6501714285714285,0.8076285714285715,34.22327142857143,-38.216728571428575,-36.05435714285714,idle
1778683095.95,10.90.50.59,1975444439,492612,0.08391000000000001,-0.6405857142857143,0.8048242857142858,33.62775571428571,-38.37106428571429,-35.06209857142857,idle
1778683095.9625,10.90.50.59,1975456250,492615,0.09562,-0.631,0.80202,33.03224,-38.525400000000005,-34.06984,idle
1778683095.9750001,10.90.50.59,1975474249,492620,0.108575,-0.6098,0.78915,31.585725,-38.5742,-32.012950000000004,idle
1778683095.9875,10.90.50.59,1975488504,492623,0.11253333333333333,-0.6076666666666667,0.7977333333333334,30.456566666666664,-37.45523333333333,-30.965166666666665,idle
1778683096.0,10.90.50.59,1975502195,492626,0.091475,-0.6335999999999999,0.790625,30.04455,-36.48375,-30.380225,idle
1778683096.0125,10.90.50.59,1975516734,492630,0.07646666666666667,-0.6411,0.7779333333333334,30.822766666666666,-36.35663333333333,-30.049633333333333,idle
1778683096.0249999,10.90.50.59,1975528190,492632,0.0872,-0.63005,0.7726500000000001,32.1045,-36.71265,-30.2429,idle
1778683096.0375,10.90.50.59,1975538290,492636,0.094775,-0.6135999999999999,0.7589250000000001,32.836925,-35.59875,-30.334474999999998,idle
1778683096.05,10.90.50.59,1975548140,492638,0.0923,-0.603,0.7641,33.7524,-34.3018,-30.9448,idle
1778683096.0625,10.90.50.59,1975564182,492642,0.08845714285714286,-0.6147142857142857,0.775557142857143,33.708842857142855,-32.52301428571429,-31.720842857142856,idle
1778683096.075,10.90.50.59,1975580113,492646,0.0911,-0.6374,0.799,33.5083,-32.5928,-32.7148,idle
1778683096.0875,10.90.50.59,1975586098,492648,0.09659999999999999,-0.63985,0.80255,34.057649999999995,-33.3557,-32.7759,idle
1778683096.1,10.90.50.59,1975598376,492650,0.103275,-0.6485,0.803525,33.93555,-34.088125,-32.6843,idle
1778683096.1125,10.90.50.59,1975614140,492654,0.088925,-0.6433,0.78315,34.225449999999995,-34.8816,-32.1808,idle
1778683096.125,10.90.50.59,1975629053,492658,0.0939,-0.6288666666666667,0.7913666666666667,34.830733333333335,-35.115566666666666,-31.982433333333333,idle
1778683096.1374998,10.90.50.59,1975642174,492662,0.103275,-0.6240749999999999,0.801525,33.630375,-33.828725,-31.8756,idle
1778683096.15,10.90.50.59,1975650286,492664,0.098925,-0.627975,0.8007375000000001,33.0886875,-33.607475,-31.707749999999997,idle
1778683096.1625001,10.90.50.59,1975658398,492666,0.09457499999999999,-0.631875,0.79995,32.547,-33.386225,-31.5399,idle
1778683096.175,10.90.50.59,1975674065,492670,0.0857,-0.638225,0.79205,32.119775000000004,-34.255975,-30.685425000000002,idle
1778683096.1875,10.90.50.59,1975688847,492673,0.08616666666666667,-0.6421666666666667,0.7929,32.61313333333333,-36.722833333333334,-29.500333333333334,idle
1778683096.2,10.90.50.59,1975700108,492676,0.09899999999999999,-0.6390666666666667,0.7817666666666666,33.48793333333333,-39.00143333333333,-28.5848,idle
1778683096.2124999,10.90.50.59,1975712017,492679,0.10959999999999999,-0.6164000000000001,0.7748666666666667,34.8307,-40.36456666666667,-28.055833333333336,idle
1778683096.225,10.90.50.59,1975725986,492682,0.10675000000000001,-0.6186,0.7847,34.2712,-40.7715,-28.0762,idle
1778683096.2375,10.90.50.59,1975739996,492685,0.10500000000000001,-0.62122,0.78212,34.729,-39.55076,-27.880860000000002,idle
1778683096.2499998,10.90.50.59,1975751975,492688,0.1063,-0.6225,0.79,34.668,-38.0249,-28.3203,idle
1778683096.2625,10.90.50.59,1975760042,492690,0.10372857142857142,-0.6252571428571428,0.7899642857142858,34.489242857142855,-37.37531428571429,-28.54265714285714,idle
1778683096.275,10.90.50.59,1975768110,492692,0.10115714285714285,-0.6280142857142856,0.7899285714285715,34.31048571428572,-36.725728571428576,-28.765014285714283,idle
1778683096.2875001,10.90.50.59,1975790200,492698,0.09355,-0.6234,0.778025,34.561175,-36.026,-29.23585,idle
1778683096.3,10.90.50.59,1975802020,492700,0.0988,-0.6232500000000001,0.7919,34.30175,-35.49195,-29.693649999999998,idle
1778683096.3125,10.90.50.59,1975811944,492703,0.10426666666666666,-0.6275666666666666,0.7817666666666666,34.15933333333333,-35.420766666666665,-29.68343333333333,idle
1778683096.325,10.90.50.59,1975824605,492706,0.10823333333333333,-0.6157333333333334,0.7886666666666667,34.0983,-35.62416666666667,-29.6224,idle
1778683096.3374999,10.90.50.59,1975839876,492710,0.11910000000000001,-0.6241000000000001,0.80112,33.10546,-35.02198,-29.589859999999998,idle
1778683096.3500001,10.90.50.59,1975852951,492713,0.1102,-0.6291,0.7956,32.7148,-34.4238,-28.6865,idle
1778683096.3625002,10.90.50.59,1975860685,492715,0.11038484848484849,-0.6299151515151515,0.7930060606060606,32.6482303030303,-34.74007878787879,-28.401675757575756,idle
1778683096.375,10.90.50.59,1975868419,492717,0.11056969696969697,-0.630730303030303,0.7904121212121212,32.5816606060606,-35.05635757575757,-28.116851515151517,idle
1778683096.3875,10.90.50.59,1975876153,492719,0.11075454545454545,-0.6315454545454545,0.7878181818181819,32.51509090909091,-35.37263636363636,-27.832027272727274,idle
1778683096.4,10.90.50.59,1975901914,492726,0.11335,-0.6087,0.78165,32.8674,-34.57645,-27.34375,idle
1778683096.4125,10.90.50.59,1975912269,492728,0.11316666666666668,-0.6127333333333334,0.7841999999999999,32.45036666666667,-33.42693333333333,-27.5879,idle
1778683096.425,10.90.50.59,1975924139,492731,0.10840000000000001,-0.6243,0.7978666666666667,31.534833333333335,-32.7962,-27.689600000000002,idle
1778683096.4375,10.90.50.59,1975940152,492735,0.09903999999999999,-0.63686,0.79486,31.396479999999997,-33.23974,-28.112779999999997,idle
1778683096.4499998,10.90.50.59,1975952229,492738,0.0943,-0.6384,0.7832,31.9824,-33.6304,-28.2593,idle
1778683096.4625,10.90.50.59,1975955799,492739,0.0899,-0.6359,0.7814,31.5552,-33.8745,-28.4424,idle
1778683096.4750001,10.90.50.59,1975963797,492741,0.1025,-0.6364,0.7828333333333334,31.7383,-34.09833333333333,-28.747566666666668,idle
1778683096.4875,10.90.50.59,1975984171,492746,0.10867142857142857,-0.6236142857142857,0.7778857142857143,32.9241,-33.726285714285716,-28.529585714285712,idle
1778683096.5,10.90.50.59,1976003726,492751,0.11253333333333333,-0.6240333333333333,0.7884666666666668,32.4707,-32.95896666666667,-28.157566666666668,idle
1778683096.5125,10.90.50.59,1976020217,492755,0.10382,-0.63218,0.78948,32.65378,-33.3008,-27.929700000000004,idle
1778683096.5249999,10.90.50.59,1976028269,492757,0.10300999999999999,-0.6357733333333333,0.7884733333333334,32.847089999999994,-33.882666666666665,-27.840183333333336,idle
1778683096.5375,10.90.50.59,1976036322,492759,0.1022,-0.6393666666666666,0.7874666666666666,33.0404,-34.46453333333333,-27.75066666666667,idle
1778683096.5500002,10.90.50.59,1976050333,492762,0.104875,-0.633025,0.7783249999999999,34.149175,-35.385125,-27.38955,idle
1778683096.5625,10.90.50.59,1976065724,492766,0.108875,-0.624425,0.78175,34.256,-35.980225000000004,-27.298000000000002,idle
1778683096.575,10.90.50.59,1976079416,492770,0.1143,-0.6193,0.7864500000000001,34.332300000000004,-35.4309,-27.0996,idle
1778683096.5875,10.90.50.59,1976089772,492772,0.11107500000000001,-0.625175,0.792075,34.1339,-34.790025,-27.4353,idle
1778683096.6,10.90.50.59,1976101700,492776,0.10665,-0.6353,0.78855,33.8745,-34.271249999999995,-27.49635,idle
1778683096.6125,10.90.50.59,1976112527,492778,0.1065,-0.6379,0.7935666666666666,34.20003333333333,-33.40656666666667,-27.5879,idle
1778683096.625,10.90.50.59,1976123674,492781,0.0988,-0.6435,0.7945333333333333,34.2204,-33.3252,-27.648933333333332,idle
1778683096.6374998,10.90.50.59,1976136081,492784,0.09836666666666667,-0.6369,0.7789666666666667,34.729000000000006,-34.790033333333334,-27.343766666666667,idle
1778683096.6499999,10.90.50.59,1976149993,492788,0.108125,-0.617,0.782375,34.622175,-35.369875,-27.145374999999998,idle
1778683096.6625001,10.90.50.59,1976161636,492790,0.10995,-0.6214,0.7901,34.11865,-34.85105,-27.1301,idle
1778683096.675,10.90.50.59,1976170651,492793,0.1080107142857143,-0.6258285714285714,0.7922785714285714,34.17968928571429,-35.208546428571424,-27.202042857142857,idle
1778683096.6875,10.90.50.59,1976179665,492795,0.10607142857142858,-0.630257142857143,0.7944571428571428,34.24072857142857,-35.566042857142854,-27.273985714285715,idle
1778683096.7,10.90.50.59,1976199619,492800,0.09973333333333334,-0.6314333333333334,0.7759,34.667966666666665,-36.49903333333334,-26.93683333333333,idle
1778683096.7124999,10.90.50.59,1976211960,492803,0.10863333333333335,-0.6192333333333333,0.7849333333333334,35.05453333333333,-36.2142,-26.79443333333333,idle
1778683096.725,10.90.50.59,1976225564,492806,0.109475,-0.6231,0.78725,34.60695,-35.8429,-26.8707,idle
1778683096.7375,10.90.50.59,1976239284,492810,0.10575000000000001,-0.61995,0.79355,34.39335,-35.7666,-26.855449999999998,idle
1778683096.7500002,10.90.50.59,1976252044,492813,0.10948,-0.62654,0.79328,33.72804,-35.192859999999996,-26.98972,idle
1778683096.7625,10.90.50.59,1976267614,492817,0.10633333333333334,-0.6277333333333334,0.7926666666666667,33.40656666666667,-34.74936666666667,-27.038566666666668,idle
1778683096.775,10.90.50.59,1976275646,492819,0.10801666666666666,-0.6267766666666668,0.7941633333333333,33.219413333333335,-34.88566333333333,-26.989743333333333,idle
1778683096.7875001,10.90.50.59,1976283677,492821,0.10969999999999999,-0.62582,0.79566,33.03226,-35.02196,-26.94092,idle
1778683096.8,10.90.50.59,1976299493,492825,0.10803333333333333,-0.63,0.7896333333333333,32.59276666666667,-35.0952,-26.713066666666666,idle
1778683096.8125,10.90.50.59,1976313810,492828,0.10575,-0.626725,0.786875,32.79115,-35.476725,-26.519775,idle
1778683096.825,10.90.50.59,1976325524,492832,0.1126,-0.62925,0.78925,32.8369,-35.61405,-26.6113,idle
1778683096.8374999,10.90.50.59,1976336649,492834,0.10943333333333334,-0.6221,0.7824333333333332,32.7352,-35.0952,-26.529966666666667,idle
1778683096.85,10.90.50.59,1976349516,492836,0.11175,-0.62275,0.7887500000000001,32.77585,-34.3628,-26.855449999999998,idle
1778683096.8625002,10.90.50.59,1976361485,492840,0.110525,-0.62785,0.787925,32.821675,-34.14915,-26.76395,idle
1778683096.875,10.90.50.59,1976372500,492842,0.10841964285714285,-0.6295821428571429,0.7909124999999999,32.6941375,-34.46086785714286,-26.774832142857143,idle
1778683096.8875,10.90.50.59,1976383515,492845,0.10631428571428571,-0.6313142857142857,0.7938999999999999,32.5666,-34.77258571428571,-26.785714285714285,idle
1778683096.9,10.90.50.59,1976401405,492850,0.10785,-0.6286,0.78755,32.77585,-34.82055,-26.76395,idle
1778683096.9125,10.90.50.59,1976411855,492852,0.10796666666666667,-0.6289333333333333,0.7791666666666667,32.6945,-34.2814,-26.9165,idle
1778683096.925,10.90.50.59,1976425358,492856,0.100575,-0.6238250000000001,0.7827999999999999,32.760574999999996,-33.767675,-26.9928,idle
1778683096.9375,10.90.50.59,1976441892,492859,0.1092,-0.6214333333333334,0.7877333333333333,32.7352,-33.650733333333335,-27.0996,idle
1778683096.95,10.90.50.59,1976451336,492861,0.108,-0.6222,0.7902,32.4097,-33.5083,-27.0386,idle
1778683096.9625,10.90.50.59,1976461376,492864,0.10375000000000001,-0.63385,0.798775,32.135025,-34.14915,-26.962274999999998,idle
1778683096.9750001,10.90.50.59,1976470517,492866,0.10443500000000001,-0.636455,0.7962575000000001,32.064832499999994,-34.945675,-26.7440775,idle
1778683096.9875,10.90.50.59,1976479659,492868,0.10512000000000002,-0.63906,0.79374,31.994639999999997,-35.742200000000004,-26.52588,idle
1778683097.0,10.90.50.59,1976497744,492872,0.10577500000000001,-0.629875,0.780475,32.379175,-36.5143,-26.199350000000003,idle
1778683097.0125,10.90.50.59,1976511457,492876,0.10993333333333333,-0.6225666666666666,0.7831,32.572399999999995,-35.82763333333333,-26.3265,idle
1778683097.0249999,10.90.50.59,1976525317,492880,0.106625,-0.625125,0.7867999999999999,32.379149999999996,-34.500125,-26.657125,idle
1778683097.0375,10.90.50.59,1976542977,492884,0.10315,-0.632125,0.7864,32.318124999999995,-33.9508,-26.870725,idle
1778683097.05,10.90.50.59,1976553454,492886,0.10439999999999999,-0.6334500000000001,0.78755,32.257099999999994,-34.057599999999994,-27.160649999999997,idle
1778683097.0625,10.90.50.59,1976561339,492888,0.1002,-0.63165,0.78515,32.89795,-34.2102,-27.2827,idle
1778683097.075,10.90.50.59,1976568976,492890,0.1002,-0.6332,0.7854,32.6538,-34.3018,-27.2827,idle
1778683097.0875,10.90.50.59,1976580282,492893,0.10248181818181819,-0.6309227272727272,0.7837272727272728,32.83690909090909,-34.50707727272727,-27.24109545454545,idle
1778683097.1,10.90.50.59,1976591588,492896,0.10476363636363638,-0.6286454545454545,0.7820545454545456,33.02001818181818,-34.71235454545455,-27.19949090909091,idle
1778683097.1125,10.90.50.59,1976615314,492902,0.0941,-0.6347,0.7876,33.2642,-34.668,-26.8555,idle
1778683097.125,10.90.50.59,1976625280,492904,0.105575,-0.6349,0.7898000000000001,33.5083,-35.552975,-26.687625,idle
1778683097.1374998,10.90.50.59,1976639642,492908,0.10756666666666666,-0.6286999999999999,0.7888666666666667,33.63036666666667,-36.1735,-26.509600000000002,idle
1778683097.15,10.90.50.59,1976653371,492912,0.11077500000000001,-0.6315999999999999,0.7922,33.157375,-36.392225,-26.56555,idle
1778683097.1625001,10.90.50.59,1976667595,492915,0.10503333333333333,-0.6327333333333334,0.7813333333333333,33.3455,-36.11246666666667,-26.590966666666663,idle
1778683097.175,10.90.50.59,1976675392,492917,0.10628666666666667,-0.6300566666666667,0.7815866666666667,33.31093,-35.61604333333334,-26.77815333333333,idle
1778683097.1875,10.90.50.59,1976683189,492919,0.10754000000000001,-0.6273799999999999,0.78184,33.27636,-35.11962,-26.965339999999998,idle
1778683097.2,10.90.50.59,1976696266,492922,0.1067575,-0.6283525,0.7834512499999999,33.19397375,-34.34447875,-27.1164075,idle
1778683097.2124999,10.90.50.59,1976709344,492926,0.105975,-0.629325,0.7850625,33.1115875,-33.5693375,-27.267475,idle
1778683097.225,10.90.50.59,1976727098,492930,0.1089,-0.6303,0.7866,33.6914,-33.8745,-27.3438,idle
1778683097.2375,10.90.50.59,1976737496,492932,0.11055000000000001,-0.630675,0.782625,33.538825,-34.225449999999995,-27.221675,idle
1778683097.2499998,10.90.50.59,1976753180,492936,0.10685,-0.6260749999999999,0.78305,33.737175,-33.538825,-26.885975,idle
1778683097.2625,10.90.50.59,1976766130,492940,0.10794999999999999,-0.6294500000000001,0.7906,33.59985,-33.11155,-26.947,idle
1778683097.275,10.90.50.59,1976773086,492942,0.10464999999999999,-0.6359,0.7927,33.5693,-32.95895,-27.0691,idle
1778683097.2875001,10.90.50.59,1976787267,492945,0.10096000000000001,-0.6365000000000001,0.79396,32.91016,-33.313,-27.46582,idle
1778683097.3,10.90.50.59,1976807200,492950,0.09603999999999999,-0.633,0.78254,33.056619999999995,-34.05762,-27.50244,idle
1778683097.3125,10.90.50.59,1976819124,492953,0.1058,-0.6305,0.7951,32.7148,-34.9121,-27.5269,idle
1778683097.325,10.90.50.59,1976825833,492954,0.10600000000000001,-0.6335,0.79135,32.959,-35.15625,-27.34375,idle
1778683097.3374999,10.90.50.59,1976837241,492958,0.1089,-0.63015,0.7895,32.958975,-35.81235,-26.901249999999997,idle
1778683097.3500001,10.90.50.59,1976855856,492962,0.1071,-0.62898,0.78316,32.43408,-35.99852,-26.51368,idle
1778683097.3625002,10.90.50.59,1976866970,492965,0.1028,-0.6296,0.78,32.4707,-35.8276,-26.3672,idle
1778683097.375,10.90.50.59,1976872949,492966,0.1033,-0.6304000000000001,0.7817000000000001,32.5012,-35.7666,-26.5198,idle
1778683097.3875,10.90.50.59,1976882083,492969,0.10142857142857142,-0.63265,0.7837785714285714,32.41184285714286,-35.448342857142855,-26.909971428571428,idle
1778683097.4,10.90.50.59,1976891218,492971,0.09955714285714286,-0.6349,0.7858571428571429,32.32248571428571,-35.13008571428571,-27.300142857142855,idle
1778683097.4125,10.90.50.59,1976911004,492976,0.0933,-0.6330666666666667,0.7768,32.775866666666666,-35.1359,-28.259266666666665,idle
1778683097.425,10.90.50.59,1976925828,492980,0.105325,-0.6314500000000001,0.781925,33.0353,-35.1715,-29.00695,idle
1778683097.4375,10.90.50.59,1976938975,492983,0.10626666666666668,-0.6247666666666667,0.7784999999999999,33.3252,-34.8104,-29.378266666666665,idle
1778683097.4499998,10.90.50.59,1976951088,492986,0.10436666666666666,-0.6231666666666666,0.7768,33.081066666666665,-34.20003333333333,-29.72413333333333,idle
1778683097.4625,10.90.50.59,1976963605,492989,0.10916666666666668,-0.6283333333333334,0.7878,33.12173333333334,-34.13903333333333,-30.2531,idle
1778683097.4750001,10.90.50.59,1976970853,492991,0.1099,-0.6308,0.7961,32.8979,-33.9966,-30.5176,idle
1778683097.4875,10.90.50.59,1976976922,492992,0.10980000000000001,-0.6375,0.79575,32.4402,-34.057599999999994,-30.7007,idle
1778683097.5,10.90.50.59,1976994978,492997,0.10688571428571428,-0.6325428571428572,0.7912142857142858,32.339914285714286,-34.981857142857145,-30.64837142857143,idle
1778683097.5125,10.90.50.59,1977012974,493002,0.1159,-0.63435,0.7788999999999999,31.5857,-34.729,-30.30395,idle
1778683097.5249999,10.90.50.59,1977025215,493004,0.112875,-0.6283,0.78145,31.661974999999998,-33.554075,-30.075075,idle
1778683097.5375,10.90.50.59,1977038891,493008,0.10943333333333334,-0.6299,0.789,31.778999999999996,-33.4676,-30.131033333333335,idle
1778683097.5500002,10.90.50.59,1977048906,493010,0.10819999999999999,-0.633,0.77805,31.52465,-33.81345,-30.0598,idle
1778683097.5625,10.90.50.59,1977064237,493014,0.10708,-0.62924,0.7766,31.84816,-33.3008,-30.200200000000002,idle
1778683097.575,10.90.50.59,1977078847,493018,0.10406666666666668,-0.6316,0.7824333333333332,31.677233333333334,-32.97933333333334,-30.2531,idle
1778683097.5875,10.90.50.59,1977086913,493020,0.1028,-0.633,0.7885,32.0435,-33.6304,-30.2124,idle
1778683097.6,10.90.50.59,1977096990,493022,0.114275,-0.633375,0.78905,31.6162,-34.240725,-30.166625,idle
1778683097.6125,10.90.50.59,1977112857,493026,0.112525,-0.63805,0.7865249999999999,31.280525,-34.6222,-29.724125,idle
1778683097.625,10.90.50.59,1977127268,493030,0.11006666666666666,-0.6378,0.7808,31.758633333333332,-35.15623333333333,-29.64276666666667,idle
1778683097.6374998,10.90.50.59,1977138844,493033,0.11366666666666668,-0.6309333333333333,0.7814,31.57553333333333,-35.1766,-29.683466666666664,idle
1778683097.6499999,10.90.50.59,1977148758,493036,0.1104,-0.6294500000000001,0.78155,31.4636,-35.0342,-29.571550000000002,idle
1778683097.6625001,10.90.50.59,1977162574,493038,0.11107500000000001,-0.63305,0.7808999999999999,31.5857,-35.7666,-29.9225,idle
1778683097.675,10.90.50.59,1977174790,493042,0.11716666666666666,-0.6356333333333334,0.7744666666666666,31.880666666666666,-36.03106666666667,-30.029299999999996,idle
1778683097.6875,10.90.50.59,1977185230,493044,0.11885,-0.63725,0.78315,32.074,-35.49195,-30.5176,idle
1778683097.7,10.90.50.59,1977196772,493048,0.1155,-0.6396,0.780225,32.333375,-34.942625,-31.097425,idle
1778683097.7124999,10.90.50.59,1977210732,493051,0.10813333333333335,-0.6376333333333334,0.7714,32.572399999999995,-33.2845,-31.1279,idle
1778683097.725,10.90.50.59,1977225092,493054,0.106575,-0.641425,0.7840750000000001,32.608025,-33.1421,-31.433075,idle
1778683097.7375,10.90.50.59,1977240725,493058,0.117725,-0.6377999999999999,0.789575,32.867450000000005,-34.744275,-30.97535,idle
1778683097.7500002,10.90.50.59,1977253563,493062,0.12345,-0.6351,0.7822,32.8064,-35.614,-30.7617,idle
1778683097.7625,10.90.50.59,1977263452,493064,0.1188,-0.6265,0.7722666666666668,32.93866666666667,-36.417633333333335,-30.41586666666667,idle
1778683097.775,10.90.50.59,1977274675,493067,0.12513333333333332,-0.6234999999999999,0.7877000000000001,32.59276666666667,-36.885600000000004,-30.273433333333333,idle
1778683097.7875001,10.90.50.59,1977287217,493070,0.12643333333333334,-0.6396666666666667,0.7923333333333332,32.145199999999996,-37.211099999999995,-30.293766666666667,idle
1778683097.8,10.90.50.59,1977294644,493072,0.1204,-0.6457,0.7876,31.9214,-37.7197,-29.9072,idle
1778683097.8125,10.90.50.59,1977308971,493076,0.11408333333333333,-0.6453166666666666,0.7931333333333334,31.9519,-39.347316666666664,-30.37516666666667,idle
1778683097.825,10.90.50.59,1977326671,493080,0.1143,-0.6492666666666667,0.8103333333333333,30.680333333333333,-41.3208,-31.94173333333333,idle
1778683097.8374999,10.90.50.59,1977338615,493083,0.11666666666666665,-0.6629999999999999,0.8219666666666666,29.724100000000004,-42.622899999999994,-33.5083,walk
1778683097.85,10.90.50.59,1977351437,493086,0.11320000000000001,-0.6634333333333333,0.8000666666666666,29.947933333333335,-42.989133333333335,-33.915166666666664,walk
1778683097.8625002,10.90.50.59,1977362994,493089,0.11576666666666667,-0.6593666666666667,0.7965666666666666,30.4362,-42.19563333333333,-34.46453333333333,walk
1778683097.875,10.90.50.59,1977375140,493092,0.1049,-0.6673666666666667,0.8116333333333333,30.537899999999997,-43.27393333333333,-36.051433333333335,walk
1778683097.8875,10.90.50.59,1977385068,493094,0.09745000000000001,-0.6733,0.81305,30.82275,-46.2036,-37.4756,walk
1778683097.9,10.90.50.59,1977392522,493096,0.0905,-0.6738999999999999,0.7933,31.4026,-47.82105,-37.658699999999996,walk
1778683097.9125,10.90.50.59,1977409102,493100,0.1188,-0.6869833333333334,0.8181333333333334,31.982416666666666,-51.808683333333335,-39.59145,walk
1778683097.925,10.90.50.59,1977426603,493105,0.11420000000000001,-0.6846666666666666,0.8413333333333334,33.26416666666667,-62.561033333333334,-42.03286666666667,walk
1778683097.9375,10.90.50.59,1977436538,493108,0.112,-0.6930499999999999,0.86555,33.2642,-70.61765,-43.731700000000004,walk
1778683097.95,10.90.50.59,1977452999,493112,0.13899999999999998,-0.7074833333333334,0.8586166666666667,33.2845,-78.15551666666667,-47.098800000000004,walk
1778683097.9625,10.90.50.59,1977461858,493114,0.14155,-0.7051916666666667,0.8603416666666667,33.701566666666665,-78.47595833333334,-48.80778333333333,walk
1778683097.9750001,10.90.50.59,1977470717,493116,0.1441,-0.7029,0.8620666666666666,34.11863333333333,-78.7964,-50.51676666666666,walk
1778683097.9875,10.90.50.59,1977482863,493119,0.13563333333333336,-0.7021666666666667,0.876,34.667966666666665,-79.87466666666667,-52.734366666666666,walk
1778683098.0,10.90.50.59,1977490545,493121,0.1243,-0.7057,0.8901,35.1562,-83.374,-54.5654,walk
1778683098.0125,10.90.50.59,1977504547,493124,0.09393333333333333,-0.7245166666666667,0.9238166666666666,36.69231666666666,-98.72436666666665,-57.25096666666667,walk
1778683098.0249999,10.90.50.59,1977524524,493130,0.03625,-0.7705,0.9389,42.739850000000004,-133.54495,-61.691275,walk
1778683098.0375,10.90.50.59,1977540736,493134,0.07935,-0.7936,0.9058499999999999,49.77415,-146.57592499999998,-63.690200000000004,walk
1778683098.05,10.90.50.59,1977552418,493136,0.18830000000000002,-0.81015,0.86605,54.99265,-130.52370000000002,-65.39914999999999,walk
1778683098.0625,10.90.50.59,1977564761,493140,0.201725,-0.783525,0.8409500000000001,60.623175,-98.80065,-67.53540000000001,walk
1778683098.075,10.90.50.59,1977577442,493142,0.2022,-0.7791,0.79145,60.3027,-74.37135,-67.3523,walk
1778683098.0875,10.90.50.59,1977586465,493145,0.26510000000000006,-0.8238666666666666,0.6131666666666667,53.6499,-62.58136666666667,-58.7972,walk
1778683098.1,10.90.50.59,1977598382,493148,0.4279333333333333,-0.8852333333333333,0.5618666666666666,55.78613333333333,-50.6592,-61.279333333333334,walk
1778683098.1125,10.90.50.59,1977614509,493152,0.6151,-0.9869399999999999,0.49482,58.70360000000001,-29.30906,-66.08886,walk
1778683098.125,10.90.50.59,1977624645,493154,0.6322,-0.9815999999999999,0.44362999999999997,67.63305,-14.52026,-70.51391,walk
1778683098.1374998,10.90.50.59,1977634780,493157,0.6493,-0.9762599999999999,0.39244,76.5625,0.2685399999999998,-74.93896,walk
1778683098.15,10.90.50.59,1977650349,493161,0.5747666666666666,-0.9091999999999999,0.3511666666666667,89.07066666666667,25.533066666666667,-78.3488,walk
1778683098.1625001,10.90.50.59,1977662334,493164,0.4234,-0.8706999999999999,0.36036666666666667,92.89553333333333,35.9904,-79.5695,walk
1778683098.175,10.90.50.59,1977676704,493167,0.3014666666666667,-0.8443666666666667,0.3902666666666667,92.48863333333333,30.985500000000002,-82.92643333333332,walk
1778683098.1875,10.90.50.59,1977686451,493170,0.25793333333333335,-0.8147333333333333,0.42873333333333336,89.84376666666667,17.822266666666668,-90.08789999999999,walk
1778683098.2,10.90.50.59,1977698277,493173,0.23673333333333332,-0.7762333333333333,0.44989999999999997,85.81543333333333,6.0831333333333335,-98.30726666666668,walk
1778683098.2124999,10.90.50.59,1977706600,493175,0.2103,-0.7433,0.4487,82.5806,-1.0376,-102.478,walk
1778683098.225,10.90.50.59,1977720321,493178,0.12548333333333334,-0.6690833333333334,0.4198,75.9379,-18.941233333333333,-108.63241666666666,walk
1778683098.2375,10.90.50.59,1977738748,493183,0.02953333333333333,-0.5585333333333334,0.4172666666666667,63.76136666666667,-50.5778,-116.71956666666667,walk
1778683098.2499998,10.90.50.59,1977750336,493186,0.0121,-0.5044000000000001,0.4516,53.48713333333333,-73.50670000000001,-119.161,walk
1778683098.2625,10.90.50.59,1977767791,493190,0.009,-0.4649,0.49234,38.3423,-97.30224000000001,-114.03808,walk
1778683098.275,10.90.50.59,1977778018,493192,0.0125625,-0.460325,0.519945,31.141662500000002,-106.5200825,-105.938715,walk
1778683098.2875001,10.90.50.59,1977788245,493194,0.016125,-0.45575,0.54755,23.941025,-115.73792499999999,-97.83935,walk
1778683098.3,10.90.50.59,1977798219,493197,0.0318,-0.4518,0.5346,19.4092,-122.1924,-84.3506,walk
1778683098.3125,10.90.50.59,1977812419,493200,0.10461666666666665,-0.42501666666666665,0.5540833333333334,18.463133333333335,-122.26356666666668,-62.957750000000004,walk
1778683098.325,10.90.50.59,1977820297,493202,0.13215833333333332,-0.41480833333333333,0.5723666666666667,17.929066666666667,-116.23128333333334,-49.530025,walk
1778683098.3374999,10.90.50.59,1977828176,493204,0.1597,-0.4046,0.59065,17.395,-110.199,-36.1023,walk
1778683098.3500001,10.90.50.59,1977842677,493208,0.14302,-0.40844,0.58786,16.772460000000002,-95.28810000000001,-12.866200000000001,walk
1778683098.3625002,10.90.50.59,1977862724,493213,0.1173,-0.41502,0.6199600000000001,19.653299999999998,-79.88282000000001,18.65234,walk
1778683098.375,10.90.50.59,1977878078,493216,0.10235,-0.4167,0.661,21.8506,-73.4558,36.46855,walk
1778683098.3875,10.90.50.59,1977888210,493220,0.136175,-0.439075,0.728425,21.270775,-73.92885000000001,49.606300000000005,walk
1778683098.4,10.90.50.59,1977904782,493224,0.147525,-0.5019,0.7602,18.783575,-79.605125,66.436775,walk
1778683098.4125,10.90.50.59,1977916142,493226,0.14765,-0.5544,0.7885500000000001,21.05715,-86.94454999999999,75.92775,walk
1778683098.425,10.90.50.59,1977924076,493228,0.13935,-0.5706,0.7983,24.627699999999997,-92.52924999999999,80.6274,walk
1778683098.4375,10.90.50.59,1977938766,493232,0.1335,-0.5799799999999999,0.84128,30.92042,-107.64161999999999,85.9253,walk
1778683098.4499998,10.90.50.59,1977954147,493236,0.145,-0.5963666666666666,0.8841333333333333,34.52556666666667,-132.93456666666668,88.80613333333334,walk
1778683098.4625,10.90.50.59,1977966504,493239,0.21196666666666666,-0.629,0.9211333333333332,36.153166666666664,-154.68343333333334,87.50406666666667,walk
1778683098.4750001,10.90.50.59,1977973567,493241,0.27560833333333334,-0.6517375,0.9393916666666666,38.43182083333333,-162.32555416666668,86.02650833333334,walk
1778683098.4875,10.90.50.59,1977980630,493242,0.33925,-0.6744749999999999,0.95765,40.710475,-169.96767499999999,84.54894999999999,walk
1778683098.5,10.90.50.59,1977994453,493246,0.43893333333333334,-0.7059333333333333,0.9525,47.34289999999999,-171.50879999999998,81.76676666666667,walk
1778683098.5125,10.90.50.59,1978005317,493249,0.4758854166666666,-0.6938541666666667,0.9451812500000001,54.971031249999996,-163.80691875,78.88920833333333,walk
1778683098.5249999,10.90.50.59,1978016181,493252,0.5128375,-0.681775,0.9378625,62.5991625,-156.1050375,76.01165,walk
1778683098.5375,10.90.50.59,1978038039,493257,0.5262333333333333,-0.6281666666666667,0.8975,72.30633333333333,-138.5905,68.6442,walk
1778683098.5500002,10.90.50.59,1978052068,493260,0.531775,-0.58275,0.85865,76.080325,-128.61632500000002,62.088025,walk
1778683098.5625,10.90.50.59,1978064852,493264,0.5628,-0.53705,0.8389,77.51465,-118.5608,56.1218,walk
1778683098.575,10.90.50.59,1978074274,493266,0.5867333333333333,-0.5023666666666667,0.8299666666666666,76.00913333333334,-108.5612,52.083333333333336,walk
1778683098.5875,10.90.50.59,1978086295,493269,0.5917333333333333,-0.4712,0.8555,73.48633333333333,-95.4997,47.68879999999999,walk
1778683098.6,10.90.50.59,1978098550,493272,0.5913666666666667,-0.46193333333333336,0.9132333333333333,70.92286666666666,-82.49916666666667,44.3929,walk
1778683098.6125,10.90.50.59,1978105990,493274,0.595,-0.4721,0.9104,67.0776,-75.0732,44.0674,walk
1778683098.625,10.90.50.59,1978115073,493276,0.61520625,-0.51208125,0.90649375,65.82639375,-65.509775,43.1518625,walk
1778683098.6374998,10.90.50.59,1978124155,493278,0.6354125,-0.5520625,0.9025875,64.5751875,-55.94635,42.236325,walk
1778683098.6499999,10.90.50.59,1978147980,493284,0.59285,-0.669725,0.920475,73.211675,-26.870725,38.8031,walk
1778683098.6625001,10.90.50.59,1978166305,493289,0.4944,-0.70392,0.8983399999999999,88.45216,-25.08544,33.32522,walk
1778683098.675,10.90.50.59,1978177820,493292,0.4417,-0.6747,0.8623,100.5859,-35.0952,29.9072,walk
1778683098.6875,10.90.50.59,1978186908,493294,0.41583333333333333,-0.6444666666666666,0.8266,106.2622,-45.73566666666667,28.523733333333336,walk
1778683098.7,10.90.50.59,1978200229,493298,0.38127500000000003,-0.6167,0.7712,109.222425,-67.59645,28.671275,walk
1778683098.7124999,10.90.50.59,1978209062,493300,0.4016575,-0.64405,0.76397,107.8888025,-82.547005,30.9860275,walk
1778683098.725,10.90.50.59,1978217895,493302,0.42203999999999997,-0.6714,0.75674,106.55518,-97.49756,33.300779999999996,walk
1778683098.7375,10.90.50.59,1978237799,493307,0.54976,-0.76878,0.77782,101.34276,-116.60155999999999,44.7632,walk
1778683098.7500002,10.90.50.59,1978251898,493310,0.64655,-0.84345,0.7726500000000001,96.5881,-115.44794999999999,56.45755,walk
1778683098.7625,10.90.50.59,1978262160,493313,0.6849,-0.8888666666666666,0.75,94.5638,-109.27326666666666,65.1652,walk
1778683098.775,10.90.50.59,1978273871,493316,0.6949666666666667,-0.9098333333333333,0.7310666666666666,96.29313333333334,-101.9287,73.36426666666667,walk
1778683098.7875001,10.90.50.59,1978286579,493319,0.6649333333333334,-0.8834333333333334,0.7011333333333333,98.24626666666666,-98.49036666666666,78.57256666666667,walk
1778683098.8,10.90.50.59,1978301946,493323,0.6106199999999999,-0.8065,0.65972,96.7529,-103.05175999999999,79.94384,walk
1778683098.8125,10.90.50.59,1978310976,493325,0.5802849999999999,-0.772,0.6458975,92.77188749999999,-106.10656749999998,77.3178075,walk
1778683098.825,10.90.50.59,1978320006,493328,0.5499499999999999,-0.7375,0.6320749999999999,88.790875,-109.16137499999999,74.691775,walk
1778683098.8374999,10.90.50.59,1978335770,493332,0.46485,-0.71285,0.599425,81.817625,-114.95972499999999,67.321775,walk
1778683098.85,10.90.50.59,1978350230,493335,0.4119,-0.6833666666666667,0.5817666666666667,79.44743333333334,-121.90756666666668,57.88166666666667,walk
1778683098.8625002,10.90.50.59,1978361848,493338,0.41053333333333336,-0.6465666666666666,0.5865666666666667,78.67433333333334,-126.709,48.3602,walk
1778683098.875,10.90.50.59,1978373753,493341,0.40843333333333337,-0.6095666666666667,0.6106333333333334,77.3519,-126.81073333333335,39.937333333333335,walk
1778683098.8875,10.90.50.59,1978389418,493344,0.40075,-0.580725,0.6119,74.43237500000001,-123.64195000000001,32.19605,walk
1778683098.9,10.90.50.59,1978401754,493348,0.3829666666666667,-0.5619333333333333,0.5762,72.83526666666667,-117.06543333333333,26.123033333333336,walk
1778683098.9125,10.90.50.59,1978419812,493352,0.32715,-0.5186000000000001,0.5018,76.5686,-108.41879999999999,20.426433333333332,walk
1778683098.925,10.90.50.59,1978428756,493355,0.29840833333333333,-0.48383333333333334,0.47658333333333336,79.33045000000001,-106.44533333333334,17.751066666666667,walk
1778683098.9375,10.90.50.59,1978437700,493357,0.26966666666666667,-0.44906666666666667,0.45136666666666664,82.09230000000001,-104.47186666666668,15.0757,walk
1778683098.95,10.90.50.59,1978452016,493360,0.234625,-0.392275,0.431425,83.4198,-105.0873,12.100225,walk
1778683098.9625,10.90.50.59,1978463752,493364,0.2116,-0.3549,0.4183,83.12985,-106.04855,10.86425,walk
1778683098.9750001,10.90.50.59,1978473657,493366,0.19153333333333333,-0.3308333333333333,0.3970666666666667,81.2988,-106.44529999999999,10.8846,walk
1778683098.9875,10.90.50.59,1978488582,493370,0.190425,-0.307425,0.384025,77.392575,-106.185925,11.962875,walk
1778683099.0,10.90.50.59,1978497745,493372,0.2059,-0.3032,0.3881,74.4629,-104.5532,13.4888,walk
1778683099.0125,10.90.50.59,1978507653,493374,0.225925,-0.311125,0.3857,70.312525,-101.36415,16.967775,walk
1778683099.0249999,10.90.50.59,1978518853,493377,0.2532,-0.3295,0.3867,65.2466,-97.4121,21.1182,walk
1778683099.0375,10.90.50.59,1978531648,493380,0.2945,-0.37096666666666667,0.39061666666666667,57.92236666666667,-92.35635,28.42203333333333,walk
1778683099.05,10.90.50.59,1978550105,493385,0.3273333333333333,-0.4333666666666667,0.39749999999999996,47.97363333333334,-87.382,39.6525,walk
1778683099.0625,10.90.50.59,1978561604,493388,0.3370333333333333,-0.4702,0.4155,42.216,-86.9751,47.70916666666667,walk
1778683099.075,10.90.50.59,1978573575,493391,0.33873333333333333,-0.5083333333333333,0.4387666666666667,34.5866,-89.66066666666666,55.3792,walk
1778683099.0875,10.90.50.59,1978588825,493394,0.331475,-0.556325,0.44,24.15465,-96.5118,63.323949999999996,walk
1778683099.1,10.90.50.59,1978601688,493398,0.29596666666666666,-0.6059,0.4156666666666667,14.567066666666667,-109.17156666666666,68.96973333333334,walk
1778683099.1125,10.90.50.59,1978612270,493400,0.25175,-0.62785,0.3902,10.16235,-123.65725,71.10595,walk
1778683099.125,10.90.50.59,1978618959,493402,0.22700499999999996,-0.633965,0.37837,7.357805,-137.890645,71.08764500000001,walk
1778683099.1374998,10.90.50.59,1978625648,493404,0.20225999999999997,-0.64008,0.36654,4.55326,-152.12404,71.06934,walk
1778683099.15,10.90.50.59,1978645773,493409,0.19219999999999998,-0.66394,0.35842,-4.91944,-200.1709,68.78662,walk
1778683099.1625001,10.90.50.59,1978659494,493412,0.2613,-0.7094499999999999,0.38155,-13.000499999999999,-234.92435,66.55885,walk
1778683099.175,10.90.50.59,1978667473,493414,0.3256,-0.75055,0.3729,-18.03585,-251.25125,65.55175,walk
1778683099.1875,10.90.50.59,1978673559,493416,0.3751,-0.7883,0.3579,-21.6675,-261.0474,65.0635,walk
1778683099.2,10.90.50.59,1978687938,493420,0.49383333333333335,-0.8843166666666668,0.29883333333333334,-24.495433333333335,-268.2291666666667,65.51106666666668,walk
1778683099.2124999,10.90.50.59,1978707498,493424,0.61895,-0.998275,0.233275,-19.729599999999998,-256.7749,68.48145,walk
1778683099.225,10.90.50.59,1978717465,493427,0.6507,-1.0331,0.2253,-14.6484,-244.3848,70.9839,walk
1778683099.2375,10.90.50.59,1978731408,493430,0.6858666666666666,-1.0657833333333333,0.23424999999999999,-8.64665,-223.2055333333333,74.1272,walk
1778683099.2499998,10.90.50.59,1978753461,493436,0.72536,-1.1125599999999998,0.2695,-1.7456,-182.32422000000003,79.43116,walk
1778683099.2625,10.90.50.59,1978765447,493439,0.7327,-1.1354,0.3132,2.2583,-157.2876,84.3506,walk
1778683099.275,10.90.50.59,1978773753,493441,0.7330333333333333,-1.1486333333333334,0.3513333333333333,3.275533333333333,-140.74710000000002,88.88753333333334,walk
1778683099.2875001,10.90.50.59,1978785430,493444,0.7249333333333334,-1.1849,0.3844,1.1393000000000002,-118.18443333333333,96.21173333333333,walk
1778683099.3,10.90.50.59,1978797727,493447,0.7026666666666667,-1.2347,0.39443333333333336,-1.9734666666666667,-101.27766666666666,102.57976666666667,walk
1778683099.3125,10.90.50.59,1978810024,493450,0.6750666666666666,-1.2799666666666667,0.3938333333333333,-2.0955333333333335,-90.92203333333333,106.99466666666666,walk
1778683099.325,10.90.50.59,1978819329,493452,0.6546000000000001,-1.299,0.37445,0.1221,-85.7849,109.28345,walk
1778683099.3374999,10.90.50.59,1978831337,493456,0.637175,-1.281975,0.36267499999999997,5.6610000000000005,-82.9315,109.237675,walk
1778683099.3500001,10.90.50.59,1978848052,493460,0.63255,-1.1993,0.41755,15.45715,-79.97132500000001,103.65295,walk
1778683099.3625002,10.90.50.59,1978859288,493462,0.62845,-1.10515,0.47014999999999996,22.64405,-77.7893,95.91675000000001,walk
1778683099.375,10.90.50.59,1978871752,493466,0.6155999999999999,-1.0085,0.5126999999999999,27.786275,-75.18005,84.5642,walk
1778683099.3875,10.90.50.59,1978885311,493469,0.585,-0.914,0.5337999999999999,29.9886,-72.59116666666667,68.1966,walk
1778683099.4,10.90.50.59,1978897319,493472,0.5522999999999999,-0.8729666666666667,0.5153333333333333,28.340666666666667,-71.47216666666667,51.28986666666666,walk
1778683099.4125,10.90.50.59,1978911784,493476,0.503925,-0.901125,0.456575,25.7416,-72.14355,28.8086,walk
1778683099.425,10.90.50.59,1978923323,493478,0.46330000000000005,-0.96145,0.3933,28.01515,-74.5239,9.0637,walk
1778683099.4375,10.90.50.59,1978935586,493482,0.42235,-1.00695,0.337175,39.12355,-79.7119,-9.933475,walk
1778683099.4499998,10.90.50.59,1978949302,493485,0.3952,-0.9969333333333333,0.29283333333333333,57.332366666666665,-88.7858,-30.070000000000004,walk
1778683099.4625,10.90.50.59,1978961290,493488,0.3785,-0.9322333333333334,0.27649999999999997,71.59423333333332,-98.57176666666668,-44.3522,walk
1778683099.4750001,10.90.50.59,1978975833,493492,0.34299999999999997,-0.8426,0.273925,81.893925,-111.328125,-57.449325,walk
1778683099.4875,10.90.50.59,1978989199,493495,0.3111,-0.7706,0.2709333333333333,87.48373333333332,-125.77313333333332,-68.15593333333334,walk
1778683099.5,10.90.50.59,1979006675,493499,0.29782,-0.69668,0.25292,91.16208,-142.59034,-78.25928,walk
1778683099.5125,10.90.50.59,1979017102,493502,0.2928,-0.634,0.2324,94.4214,-153.8696,-84.5337,walk
1778683099.5249999,10.90.50.59,1979023260,493504,0.29800000000000004,-0.60285,0.22725,94.9707,-158.3252,-87.1582,walk
1778683099.5375,10.90.50.59,1979029263,493505,0.3016,-0.5749,0.2226,95.2148,-162.0483,-89.6606,walk
1778683099.5500002,10.90.50.59,1979043237,493508,0.31698333333333334,-0.5118166666666667,0.20368333333333333,92.80395,-166.95151666666666,-94.57398333333333,walk
1778683099.5625,10.90.50.59,1979061082,493513,0.3351,-0.46403333333333335,0.1794,86.12063333333333,-167.01253333333332,-99.26350000000001,walk
1778683099.575,10.90.50.59,1979075429,493516,0.344175,-0.45330000000000004,0.1543,80.413825,-161.1328,-100.6317,walk
1778683099.5875,10.90.50.59,1979087184,493520,0.34785,-0.4511,0.14095,75.80565,-153.59494999999998,-100.25025,walk
1778683099.6,10.90.50.59,1979098226,493522,0.35250000000000004,-0.4512666666666667,0.14083333333333334,72.48943333333334,-145.85366666666667,-98.7752,walk
1778683099.6125,10.90.50.59,1979112295,493526,0.36485,-0.467775,0.13722499999999999,65.26185,-133.316025,-94.10095,walk
1778683099.625,10.90.50.59,1979125182,493529,0.4154333333333333,-0.5089666666666667,0.15843333333333331,57.18993333333333,-118.1844,-87.72786666666667,walk
1778683099.6374998,10.90.50.59,1979139332,493532,0.458075,-0.573975,0.1824,49.0265,-97.9462,-78.43015,walk
1778683099.6499999,10.90.50.59,1979151141,493536,0.4633,-0.63825,0.20685,42.44995,-80.5359,-69.85475,walk
1778683099.6625001,10.90.50.59,1979161466,493538,0.4527333333333334,-0.6864666666666667,0.2231,40.0187,-68.23726666666667,-63.09003333333333,walk
1778683099.675,10.90.50.59,1979175119,493542,0.439775,-0.7274,0.260125,38.070675,-56.442275,-54.702775,walk
1778683099.6875,10.90.50.59,1979187128,493544,0.42805,-0.74225,0.28385,37.81125,-49.22485,-48.9807,walk
1778683099.7,10.90.50.59,1979197981,493547,0.4149333333333334,-0.7343000000000001,0.3158,37.333133333333336,-45.8374,-45.45086666666666,walk
1778683099.7124999,10.90.50.59,1979210661,493550,0.3985666666666667,-0.7127333333333334,0.35053333333333336,35.9904,-44.2912,-42.3991,walk
1778683099.725,10.90.50.59,1979221078,493553,0.38939999999999997,-0.6830666666666666,0.3816333333333333,33.44726666666667,-45.02363333333333,-40.93423333333333,walk
1778683099.7375,10.90.50.59,1979226144,493554,0.3916428571428571,-0.6715607142857143,0.3897857142857143,31.67288571428572,-46.04233571428571,-40.87392142857143,walk
1778683099.7500002,10.90.50.59,1979231209,493556,0.3938857142857143,-0.6600547619047619,0.39793809523809526,29.898504761904768,-47.06103809523809,-40.813609523809525,walk
1778683099.7625,10.90.50.59,1979236274,493557,0.3961285714285714,-0.6485488095238094,0.4060904761904762,28.124123809523812,-48.07974047619047,-40.75329761904762,walk
1778683099.775,10.90.50.59,1979241340,493558,0.39837142857142854,-0.6370428571428571,0.4142428571428572,26.34974285714286,-49.09844285714286,-40.69298571428572,walk
1778683099.7875001,10.90.50.59,1979277411,493567,0.47705454545454545,-0.665109090909091,0.47563636363636363,5.9537,-46.65860909090909,-35.74995454545455,walk
1778683099.8,10.90.50.59,1979307552,493574,0.557925,-0.786725,0.51015,-10.94055,-30.471775,-21.4386,walk
1778683099.8125,10.90.50.59,1979317008,493577,0.5655,-0.8373,0.52,-15.5029,-23.2544,-13.7939,walk
1778683099.825,10.90.50.59,1979325240,493579,0.5619999999999999,-0.8781333333333334,0.5182666666666668,-19.165033333333334,-18.941266666666667,-6.754566666666666,walk
1778683099.8374999,10.90.50.59,1979334938,493582,0.56,-0.9444,0.4947,-25.115949999999998,-15.411349999999999,2.7466,walk
1778683099.85,10.90.50.59,1979353044,493586,0.5669571428571428,-1.1209714285714285,0.4462285714285715,-34.44998571428572,-13.785228571428572,20.12417142857143,walk
1778683099.8625002,10.90.50.59,1979368866,493590,0.574,-1.2988,0.4387,-35.8276,-16.8457,33.3252,walk
1778683099.875,10.90.50.59,1979376828,493592,0.5929333333333333,-1.3703666666666667,0.46090000000000003,-31.046533333333333,-19.388833333333334,39.2049,walk
1778683099.8875,10.90.50.59,1979389135,493595,0.6530666666666667,-1.4363666666666666,0.49996666666666667,-20.6706,-20.914733333333334,46.71223333333334,walk
1778683099.9,10.90.50.59,1979402911,493598,0.6990000000000001,-1.403975,0.5379499999999999,-4.1809,-17.3645,49.880975,walk
1778683099.9125,10.90.50.59,1979414936,493602,0.7,-1.27055,0.56195,15.01465,-9.27735,49.011250000000004,walk
1778683099.925,10.90.50.59,1979425361,493604,0.7045,-1.1146666666666667,0.5459333333333333,26.4282,-3.0721333333333334,46.976733333333335,walk
1778683099.9375,10.90.50.59,1979434741,493606,0.69095,-0.98445,0.5018,30.51755,3.3569500000000003,42.60255,walk
1778683099.95,10.90.50.59,1979441879,493608,0.6775249999999999,-0.946585,0.47139,29.431135,6.854255,36.376965,walk
1778683099.9625,10.90.50.59,1979449017,493610,0.6641,-0.90872,0.44098,28.344720000000002,10.351560000000001,30.15138,walk
1778683099.9750001,10.90.50.59,1979464861,493614,0.6387333333333333,-0.9423666666666666,0.38430000000000003,24.108900000000002,18.107066666666665,13.264966666666666,walk
1778683099.9875,10.90.50.59,1979481028,493618,0.6486799999999999,-1.07078,0.35014,25.9033,27.99072,-2.86868,walk
1778683100.0,10.90.50.59,1979498811,493622,0.66415,-1.187975,0.32799999999999996,38.14695,45.700075,-16.281125,walk
1778683100.0125,10.90.50.59,1979513437,493626,0.6375000000000001,-1.2028,0.3000333333333333,52.083333333333336,59.9162,-23.050966666666667,walk
1778683100.0249999,10.90.50.59,1979527372,493630,0.5782,-1.16315,0.254175,65.4297,66.77244999999999,-29.2969,walk
1778683100.0375,10.90.50.59,1979536649,493632,0.5269,-1.1118,0.2231,74.585,67.0776,-34.668,walk
1778683100.05,10.90.50.59,1979540834,493633,0.5076,-1.0861,0.2143,78.5522,65.5518,-36.9873,walk
1778683100.0625,10.90.50.59,1979554917,493636,0.4386833333333333,-0.9750833333333334,0.18710000000000002,90.55583333333334,54.890966666666664,-47.18016666666667,walk
1778683100.075,10.90.50.59,1979572769,493641,0.3637333333333333,-0.8240999999999999,0.16036666666666666,100.76903333333333,34.790033333333334,-63.374833333333335,walk
1778683100.0875,10.90.50.59,1979587254,493644,0.32535000000000003,-0.722525,0.1521,102.630625,16.815175,-77.43837500000001,walk
1778683100.1,10.90.50.59,1979600714,493648,0.30646666666666667,-0.6453333333333333,0.14429999999999998,101.84736666666667,0.44760000000000016,-91.14580000000001,walk
1778683100.1125,10.90.50.59,1979610691,493650,0.30485,-0.5990500000000001,0.13665,99.97555,-8.270249999999999,-100.09765,walk
1778683100.125,10.90.50.59,1979623898,493654,0.308425,-0.5548,0.12537500000000001,96.084625,-14.343275,-109.3292,walk
1778683100.1374998,10.90.50.59,1979636721,493657,0.31716666666666665,-0.5185666666666666,0.10843333333333334,91.32893333333334,-17.761233333333333,-117.91993333333333,walk
1778683100.15,10.90.50.59,1979644580,493659,0.3299,-0.5034,0.0932,88.1958,-18.2495,-121.521,walk
1778683100.1625001,10.90.50.59,1979658672,493662,0.3564333333333333,-0.4908166666666667,0.07798333333333334,81.77693333333333,-15.411383333333333,-125.30516666666666,walk
1778683100.175,10.90.50.59,1979676690,493667,0.3938,-0.4948666666666666,0.07083333333333333,73.28286666666666,-7.6090333333333335,-126.05793333333334,walk
1778683100.1875,10.90.50.59,1979691010,493670,0.403575,-0.526925,0.05715,65.36865,-0.213625,-122.375475,walk
1778683100.2,10.90.50.59,1979702596,493674,0.4081,-0.56545,0.047850000000000004,59.478750000000005,4.364,-118.0725,walk
1778683100.2124999,10.90.50.59,1979710558,493676,0.40349999999999997,-0.5928500000000001,0.0434,55.60305,8.05665,-114.31885,walk
1778683100.225,10.90.50.59,1979724426,493678,0.388375,-0.636425,0.03145,50.9796,11.734025,-107.482925,walk
1778683100.2375,10.90.50.59,1979736629,493682,0.3691333333333333,-0.6770999999999999,0.02666666666666667,47.89226666666667,13.2243,-99.01936666666667,walk
1778683100.2499998,10.90.50.59,1979744561,493684,0.3631,-0.6865,0.029,47.7905,12.5122,-93.75,walk
1778683100.2625,10.90.50.59,1979754568,493686,0.3692777777777778,-0.6734555555555555,0.0364,46.42061666666667,8.612727777777778,-87.19210555555556,walk
1778683100.275,10.90.50.59,1979764575,493689,0.3754555555555556,-0.6604111111111111,0.0438,45.05073333333333,4.7132555555555555,-80.63421111111111,walk
1778683100.2875001,10.90.50.59,1979790825,493696,0.43395,-0.609175,0.10325000000000001,35.20205,-4.653925,-63.995375,walk
1778683100.3,10.90.50.59,1979800554,493698,0.4586,-0.6088,0.1352,27.832,-4.9438,-57.1899,walk
1778683100.3125,10.90.50.59,1979806450,493700,0.47225,-0.6187,0.1527,22.0337,-3.9673,-52.917500000000004,walk
1778683100.325,10.90.50.59,1979821259,493703,0.50304,-0.6742,0.17028,11.40136,1.4648400000000001,-43.62794,walk
1778683100.3374999,10.90.50.59,1979838476,493708,0.529875,-0.7539,0.189175,3.2196000000000002,12.908925,-32.638525,walk
1778683100.3500001,10.90.50.59,1979849588,493710,0.5240017857142857,-0.8047428571428572,0.2035732142857143,-0.2517714285714283,21.887641071428572,-26.873976785714284,walk
1778683100.3625002,10.90.50.59,1979860700,493713,0.5181285714285714,-0.8555857142857143,0.21797142857142857,-3.7231428571428573,30.866357142857144,-21.10942857142857,walk
1778683100.375,10.90.50.59,1979873755,493716,0.5097642857142857,-0.9444595238095237,0.22711071428571428,-9.180704761904762,39.77095357142857,-13.799755952380952,walk
1778683100.3875,10.90.50.59,1979886811,493720,0.5014,-1.0333333333333332,0.23625,-14.638266666666667,48.675549999999994,-6.490083333333334,walk
1778683100.4,10.90.50.59,1979904358,493724,0.47386666666666666,-1.2183666666666666,0.24033333333333332,-21.8913,57.45443333333333,2.868633333333333,walk
1778683100.4125,10.90.50.59,1979921052,493728,0.42884,-1.35476,0.25976,-16.040020000000002,59.38720000000001,7.0678600000000005,walk
1778683100.425,10.90.50.59,1979928726,493730,0.4015033333333333,-1.3579299999999999,0.27491333333333334,-6.5348266666666674,57.80028333333334,6.677246666666667,walk
1778683100.4375,10.90.50.59,1979936399,493732,0.3741666666666667,-1.3610999999999998,0.2900666666666667,2.970366666666667,56.213366666666666,6.2866333333333335,walk
1778683100.4499998,10.90.50.59,1979949127,493735,0.3353,-1.2171333333333334,0.328,22.359233333333332,49.23503333333333,0.8748333333333332,walk
1778683100.4625,10.90.50.59,1979956743,493737,0.30095,-1.0809466666666667,0.35805,30.16155666666667,41.82331666666666,-4.005933333333334,walk
1778683100.4750001,10.90.50.59,1979964359,493739,0.2666,-0.9447599999999999,0.3881,37.96388,34.4116,-8.886700000000001,walk
1778683100.4875,10.90.50.59,1979986813,493744,0.14635,-0.7505666666666667,0.40599999999999997,24.50561666666667,3.8655499999999994,-26.041666666666668,walk
1778683100.5,10.90.50.59,1980004312,493749,0.09999999999999999,-0.8337666666666667,0.36990000000000006,1.2817666666666667,-32.368966666666665,-43.6198,walk
1778683100.5125,10.90.50.59,1980020863,493753,0.11792,-1.00092,0.32988,-3.6987200000000002,-62.51220000000001,-57.56836,walk
1778683100.5249999,10.90.50.59,1980028579,493755,0.13349333333333335,-1.0457100000000001,0.3288566666666667,1.7110233333333338,-71.60033333333334,-63.12661333333333,walk
1778683100.5375,10.90.50.59,1980036295,493757,0.14906666666666668,-1.0905,0.32783333333333337,7.120766666666667,-80.68846666666667,-68.68486666666666,walk
1778683100.5500002,10.90.50.59,1980048644,493760,0.15223333333333333,-1.0674,0.3467,20.5892,-85.083,-72.347,walk
1778683100.5625,10.90.50.59,1980057593,493762,0.15608333333333335,-0.9964,0.34592500000000004,27.76591666666667,-87.95675,-70.07345,walk
