timestamp,sequence,accel_x,accel_y,accel_z,gyro_x,gyro_x,gyro_z
1778683089.220955,513450,-0.5923,-0.5551,0.892,46.6309,-1.709,23.4985
1778683089.220955,513451,-0.5904,-0.5624,0.8867,46.4478,-4.3945,25.8179
1778683089.220955,513452,-0.5943,-0.569,0.8745,47.3022,-5.249,28.3203
1778683089.231696,513453,-0.6004,-0.5609,0.8618,49.0723,-4.9438,30.8838
1778683089.232697,513454,-0.6016,-0.5431,0.8498,49.1943,-3.3569,33.6304
1778683089.241903,513455,-0.6101,-0.5258,0.832,48.8892,-0.8545,36.3159
1778683089.241903,513456,-0.6089,-0.5129,0.8164,48.2788,1.6479,39.1235
1778683089.243024,513457,-0.6072,-0.5038,0.8012,47.6685,4.6387,41.8701
1778683089.243024,513458,-0.6043,-0.497,0.7863,45.5933,7.9346,44.6777
1778683089.243024,513459,-0.6018,-0.4904,0.7727,44.0674,10.7422,47.2412
1778683089.243024,513460,-0.5996,-0.4809,0.7558,42.6025,13.3667,49.5605
1778683089.256101,513461,-0.5943,-0.466,0.7441,40.2832,15.9302,51.8799
1778683089.256101,513462,-0.5921,-0.4601,0.728,38.269,17.8833,54.0771
1778683089.256101,513463,-0.5857,-0.4455,0.7131,35.7666,19.5923,56.2134
1778683089.272672,513464,-0.5779,-0.4433,0.6931,33.1421,21.2402,58.2275
1778683089.272672,513465,-0.5696,-0.4337,0.6782,30.5176,22.7661,60.1807
1778683089.272672,513466,-0.5581,-0.4242,0.6567,27.2217,24.8413,61.9507
1778683089.272672,513467,-0.5554,-0.4154,0.6384,25.0244,26.3062,63.7817
1778683089.272672,513468,-0.5647,-0.4098,0.6228,22.2778,26.2451,65.6738
1778683089.289029,513469,-0.5811,-0.4025,0.6062,18.4937,26.5503,67.5049
1778683089.305626,513470,-0.5984,-0.3944,0.5935,14.6484,26.062,69.2139
1778683089.305626,513471,-0.6121,-0.3866,0.5822,10.437,24.0479,70.6177
1778683089.305626,513472,-0.6196,-0.3835,0.5727,7.0801,22.3389,72.2656
1778683089.305626,513473,-0.6184,-0.3839,0.5612,2.8687,20.2026,73.6084
1778683089.313347,513474,-0.616,-0.381,0.5554,-1.4038,17.7002,74.7681
1778683089.315330,513475,-0.6128,-0.3781,0.5522,-4.6997,15.564,75.8667
1778683089.317409,513476,-0.614,-0.3778,0.5502,-8.8501,12.9395,77.0264
1778683089.326463,513477,-0.6104,-0.3769,0.5468,-13.4888,10.7422,78.125
1778683089.330070,513478,-0.6023,-0.3786,0.5424,-17.1509,8.606,79.2236
1778683089.338916,513479,-0.5923,-0.38,0.5415,-21.9727,7.0801,80.1392
1778683089.338916,513480,-0.5764,-0.3776,0.5449,-25.6348,6.2866,80.8105
1778683089.338916,513481,-0.5654,-0.3808,0.548,-29.6021,5.8594,81.665
1778683089.343439,513482,-0.554,-0.3795,0.552,-34.4849,6.2256,82.3975
1778683089.344168,513483,-0.5435,-0.3847,0.5522,-37.5366,6.7139,83.0078
1778683089.344168,513484,-0.5335,-0.39,0.5576,-41.2598,7.4463,83.5571
1778683089.354731,513485,-0.5186,-0.3983,0.562,-45.105,9.0942,84.0454
1778683089.380839,513486,-0.5061,-0.4035,0.57,-48.5229,11.2305,84.4727
1778683089.380839,513487,-0.4998,-0.4062,0.5703,-52.4902,13.916,84.7778
1778683089.380839,513488,-0.4915,-0.4123,0.5793,-53.894,16.2354,85.083
1778683089.380839,513489,-0.4951,-0.4106,0.5854,-58.1665,18.9209,85.083
1778683089.380839,513490,-0.5005,-0.4206,0.5915,-60.1807,21.6064,85.083
1778683089.380839,513491,-0.5059,-0.4291,0.5988,-61.7065,23.8647,85.2051
1778683089.383837,513492,-0.5232,-0.4335,0.6081,-64.4531,25.0244,84.8389
1778683089.388010,513493,-0.5381,-0.4433,0.6159,-66.4673,24.9634,84.2896
1778683089.388794,513494,-0.551,-0.4411,0.6201,-68.3594,24.4141,83.4351
1778683089.388794,513495,-0.5535,-0.4445,0.6242,-69.458,23.4985,82.5195
1778683089.405502,513496,-0.5525,-0.4399,0.6272,-70.3735,21.4844,81.7261
1778683089.414584,513497,-0.5496,-0.4335,0.6291,-71.9604,19.8364,80.6885
1778683089.414584,513498,-0.5503,-0.4337,0.6303,-72.6929,18.0664,79.5288
1778683089.415625,513499,-0.5464,-0.432,0.6303,-73.4253,16.6016,78.6133
1778683089.415625,513500,-0.5408,-0.4272,0.6303,-74.4019,15.1978,77.8809
1778683089.415625,513501,-0.5374,-0.4245,0.6298,-75.0732,14.4043,77.1484
1778683089.422439,513502,-0.5235,-0.4203,0.6298,-75.3784,13.4888,76.2939
1778683089.429862,513503,-0.5066,-0.4176,0.6269,-75.9888,14.0991,75.6836
1778683089.429862,513504,-0.4956,-0.4096,0.6293,-76.7212,14.7705,75.0122
1778683089.429862,513505,-0.4844,-0.4086,0.6279,-78.4912,16.1133,74.5239
1778683089.439429,513506,-0.4802,-0.4066,0.6269,-78.9185,17.395,74.1577
1778683089.439429,513507,-0.4678,-0.4106,0.6293,-79.4067,18.7988,73.9136
1778683089.446840,513508,-0.4622,-0.4167,0.6362,-79.834,20.6299,73.6084
1778683089.448804,513509,-0.4558,-0.4211,0.6472,-80.6885,22.0947,73.1812
1778683089.456057,513510,-0.4505,-0.4228,0.6628,-80.8105,23.0713,72.7539
1778683089.458481,513511,-0.4527,-0.4237,0.6811,-81.2378,23.8037,72.0215
1778683089.464966,513512,-0.4553,-0.4294,0.6984,-82.3364,24.353,70.9839
1778683089.467139,513513,-0.4568,-0.4328,0.708,-82.3975,24.5361,69.7632
1778683089.472526,513514,-0.4568,-0.4328,0.7216,-82.2754,24.9634,68.3594
1778683089.472526,513515,-0.458,-0.4316,0.7319,-82.1533,24.5361,67.0166
1778683089.472526,513516,-0.4685,-0.4325,0.7353,-81.604,22.9492,65.4907
1778683089.472526,513517,-0.471,-0.4364,0.7387,-81.0547,21.9116,63.9038
1778683089.489024,513518,-0.4651,-0.4342,0.7392,-79.2847,20.9961,62.3779
1778683089.489613,513519,-0.4573,-0.4355,0.7407,-79.4067,19.8975,60.73
1778683089.489613,513520,-0.447,-0.4381,0.7429,-78.186,18.9209,59.3262
1778683089.489613,513521,-0.4429,-0.4337,0.7487,-76.1108,18.6157,58.1055
1778683089.489613,513522,-0.4426,-0.434,0.7512,-74.8291,17.8833,56.8237
1778683089.513050,513523,-0.4527,-0.4406,0.7551,-72.937,17.0898,55.7861
1778683089.518117,513524,-0.4627,-0.4447,0.758,-71.4722,16.5405,54.5044
1778683089.519445,513525,-0.4624,-0.4504,0.7507,-70.7397,16.1133,53.2227
1778683089.522434,513526,-0.4629,-0.4577,0.7517,-69.2139,15.8081,52.124
1778683089.522434,513527,-0.4639,-0.4638,0.7512,-67.3828,15.1978,51.0864
1778683089.543198,513528,-0.4683,-0.4621,0.749,-65.8569,15.5029,50.2319
1778683089.543198,513529,-0.4751,-0.4643,0.7441,-64.7583,16.2964,49.0112
1778683089.544169,513530,-0.4832,-0.4655,0.7385,-62.6221,16.6626,48.0347
1778683089.544169,513531,-0.4976,-0.4655,0.7382,-61.5845,17.0898,47.4243
1778683089.544169,513532,-0.5044,-0.4687,0.736,-60.4858,17.5171,46.9971
1778683089.544556,513533,-0.5098,-0.4709,0.7363,-59.2041,17.8223,46.3867
1778683089.544556,513534,-0.5098,-0.4706,0.7399,-59.3872,18.7378,45.7764
1778683089.555640,513535,-0.5029,-0.475,0.7436,-58.0444,19.4092,45.2881
1778683089.555640,513536,-0.4978,-0.4777,0.7438,-57.251,21.3623,44.8608
1778683089.562481,513537,-0.4815,-0.4792,0.7456,-56.1523,23.4375,44.5557
1778683089.566481,513538,-0.4651,-0.4777,0.7429,-56.0303,26.5503,43.8843
1778683089.573016,513539,-0.4495,-0.4709,0.7412,-55.1758,30.5176,43.0298
1778683089.573016,513540,-0.438,-0.4711,0.7375,-53.894,34.79,42.0532
1778683089.578797,513541,-0.419,-0.4691,0.7395,-53.772,40.1001,41.3818
1778683089.581688,513542,-0.4019,-0.4665,0.7331,-53.6499,45.2881,40.6494
1778683089.586000,513543,-0.3899,-0.465,0.7294,-53.894,50.293,39.6118
1778683089.588940,513544,-0.426,-0.455,0.6699,-53.4668,54.0771,38.3301
1778683089.588940,513545,-0.3941,-0.4755,0.7119,-54.0771,58.7769,38.0859
1778683089.588940,513546,-0.409,-0.4865,0.7543,-52.8564,58.7769,35.7056
1778683089.614645,513547,-0.4334,-0.4779,0.7287,-52.3682,57.1289,32.2266
1778683089.622204,513548,-0.4839,-0.4379,0.604,-51.5137,54.4434,29.541
1778683089.622204,513549,-0.4404,-0.5153,0.7688,-52.4292,52.3071,27.832
1778683089.622204,513550,-0.4356,-0.5627,0.9301,-51.7578,41.8701,23.1323
1778683089.622204,513551,-0.4619,-0.5553,0.8535,-52.7954,34.3018,17.0288
1778683089.625599,513552,-0.4309,-0.5158,0.8647,-50.293,29.2969,12.4512
1778683089.627837,513553,-0.3833,-0.4911,0.8977,-47.3633,22.0337,8.1177
1778683089.630010,513554,-0.3335,-0.505,0.9282,-46.4478,16.4185,5.249
1778683089.630540,513555,-0.3482,-0.5304,0.9077,-45.5322,12.8784,2.5635
1778683089.638824,513556,-0.3389,-0.5812,0.9018,-46.7529,13.7329,0
1778683089.642188,513557,-0.3154,-0.6269,0.9167,-49.0723,18.2495,-4.8828
1778683089.642188,513558,-0.2739,-0.633,0.9045,-52.7344,25.2075,-11.1694
1778683089.651133,513559,-0.2132,-0.5912,0.8315,-53.5889,33.3862,-16.8457
1778683089.654722,513560,-0.1795,-0.5378,0.7355,-53.5889,44.0674,-19.3481
1778683089.656443,513561,-0.1931,-0.4943,0.6291,-51.6968,53.9551,-19.104
1778683089.662997,513562,-0.2525,-0.4853,0.5424,-51.8799,61.0962,-18.0054
1778683089.666313,513563,-0.3626,-0.5075,0.4809,-53.2837,64.4531,-17.7002
1778683089.672504,513564,-0.5039,-0.558,0.4348,-53.9551,61.8286,-17.334
1778683089.672504,513565,-0.6716,-0.6164,0.4284,-52.9785,51.3916,-15.686
1778683089.681005,513566,-0.8284,-0.6493,0.4751,-51.2085,33.5083,-12.3901
1778683089.681005,513567,-0.9407,-0.6618,0.5603,-46.5088,11.6577,-7.8735
1778683089.687425,513568,-1.001,-0.6808,0.6567,-41.9922,-12.8174,-4.5166
1778683089.690672,513569,-0.9968,-0.7135,0.7639,-39.978,-35.6445,-3.1128
1778683089.691706,513570,-0.9343,-0.7431,0.8698,-35.5225,-55.4199,-2.9297
1778683089.691706,513571,-0.8367,-0.7619,0.9626,-34.1797,-69.458,-3.1738
1778683089.705954,513572,-0.711,-0.7536,1.0278,-31.189,-77.3315,-2.4414
1778683089.705954,513573,-0.5791,-0.7248,1.0612,-29.541,-77.4536,-1.2817
1778683089.722397,513574,-0.4578,-0.6896,1.073,-26.8555,-71.0449,1.6479
1778683089.722397,513575,-0.3743,-0.6581,1.0732,-24.8413,-58.8989,6.1646
1778683089.723077,513576,-0.333,-0.6527,1.0647,-22.3389,-43.9453,11.2915
1778683089.723077,513577,-0.3308,-0.6642,1.0644,-19.7144,-28.1372,16.0522
1778683089.727243,513578,-0.3567,-0.6776,1.0639,-18.1885,-13.7939,19.5312
1778683089.730581,513579,-0.3855,-0.6938,1.0617,-17.8833,-1.0986,21.2402
1778683089.731802,513580,-0.406,-0.6864,1.0539,-18.0054,10.5591,21.7896
1778683089.739034,513581,-0.4109,-0.6654,1.0434,-18.1885,20.2637,21.5454
1778683089.739034,513582,-0.4075,-0.6398,1.0256,-19.3481,29.3579,21.6064
1778683089.748812,513583,-0.4016,-0.6225,1.0124,-20.2026,38.6353,22.2778
1778683089.750612,513584,-0.4048,-0.61,0.9992,-22.2168,47.4243,23.0713
1778683089.751751,513585,-0.4143,-0.602,0.9829,-23.8037,55.8472,23.5596
1778683089.755571,513586,-0.429,-0.5981,0.9736,-24.9634,63.1104,23.8647
1778683089.761801,513587,-0.4361,-0.5963,0.9702,-26.8555,68.7256,23.6816
1778683089.765245,513588,-0.4597,-0.5978,0.9836,-29.541,72.0825,23.4375
1778683089.772453,513589,-0.4783,-0.5966,1.0009,-32.4097,73.1812,22.644
1778683089.772453,513590,-0.4907,-0.5941,1.0251,-34.9731,71.228,21.5454
1778683089.782441,513591,-0.491,-0.5961,1.049,-37.0483,68.4204,19.7754
1778683089.784402,513592,-0.4756,-0.5993,1.0747,-39.7949,65.979,17.7612
1778683089.786075,513593,-0.4475,-0.5998,1.0983,-41.4429,64.3311,15.3809
1778683089.789411,513594,-0.4138,-0.5978,1.1044,-42.8467,64.0869,12.4512
1778683089.794746,513595,-0.3772,-0.591,1.1052,-42.3584,63.3545,9.0332
1778683089.798729,513596,-0.3501,-0.5981,1.0937,-44.0674,65.0635,7.1411
1778683089.799745,513597,-0.3023,-0.5707,1.0805,-42.2363,68.1152,4.6997
1778683089.805513,513598,-0.2493,-0.5534,1.0527,-41.1987,73.1812,1.709
1778683089.805513,513599,-0.1924,-0.5334,1.0051,-40.7104,78.9795,-0.8545
1778683089.805513,513600,-0.1453,-0.5148,0.9655,-39.1846,84.4116,-2.5635
1778683089.805513,513601,-0.116,-0.4914,0.9165,-37.2925,90.6982,-3.7231
1778683089.822309,513602,-0.0952,-0.4618,0.8662,-37.7808,97.0459,-4.9438
1778683089.822309,513603,-0.0733,-0.4306,0.8139,-37.6587,103.2715,-6.3477
1778683089.822309,513604,-0.0635,-0.4171,0.7673,-39.917,108.4595,-7.7515
1778683089.822309,513605,-0.055,-0.4057,0.716,-39.856,113.4644,-8.8501
1778683089.839028,513606,-0.0584,-0.3966,0.6804,-41.3818,116.5161,-9.7656
1778683089.839540,513607,-0.0669,-0.3886,0.655,-42.1753,120.3003,-10.8032
1778683089.839540,513608,-0.073,-0.3795,0.6127,-44.0674,124.2065,-12.146
1778683089.850182,513609,-0.0757,-0.38,0.5703,-47.1191,127.4414,-14.0991
1778683089.852883,513610,-0.0825,-0.3815,0.5393,-49.4995,129.1504,-16.1743
1778683089.855697,513611,-0.1016,-0.3905,0.5197,-52.8564,129.5776,-18.2495
1778683089.855697,513612,-0.1216,-0.4113,0.5109,-54.8096,127.9907,-20.2026
1778683089.865372,513613,-0.1489,-0.4333,0.5161,-57.1899,125.7324,-22.3999
1778683089.867390,513614,-0.177,-0.4523,0.5114,-59.021,121.7651,-24.9634
1778683089.876968,513615,-0.209,-0.4787,0.5153,-61.2793,116.2109,-27.832
1778683089.881027,513616,-0.2466,-0.5148,0.5314,-63.8428,109.375,-30.3955
1778683089.881027,513617,-0.2893,-0.5519,0.5568,-64.5142,101.5015,-32.8979
1778683089.881027,513618,-0.3296,-0.5885,0.5915,-63.4155,92.7734,-35.2783
1778683089.888996,513619,-0.3628,-0.6195,0.6279,-63.2935,82.9468,-37.5366
1778683089.899488,513620,-0.3924,-0.6405,0.6604,-61.4624,72.937,-39.7949
1778683089.922709,513621,-0.4112,-0.6601,0.6867,-60.1196,62.7441,-41.9922
1778683089.922709,513622,-0.4153,-0.6769,0.7009,-58.8989,53.894,-43.9453
1778683089.922709,513623,-0.3965,-0.6862,0.6955,-56.1523,45.8984,-45.8374
1778683089.922709,513624,-0.3638,-0.6899,0.6792,-54.2603,38.147,-47.6685
1778683089.922709,513625,-0.322,-0.6928,0.6689,-52.124,30.4565,-49.5605
1778683089.922709,513626,-0.2754,-0.6899,0.663,-49.1333,23.8037,-51.4526
1778683089.931390,513627,-0.2341,-0.6901,0.6572,-46.9971,18.6768,-53.1616
1778683089.931390,513628,-0.1987,-0.6852,0.6591,-45.5322,15.5029,-54.6875
1778683089.932446,513629,-0.1702,-0.6828,0.6662,-42.8467,14.0381,-55.9692
1778683089.936438,513630,-0.1499,-0.684,0.6713,-42.2363,15.0757,-56.8848
1778683089.937828,513631,-0.1375,-0.6855,0.665,-41.748,16.5405,-57.8003
1778683089.943641,513632,-0.1267,-0.6869,0.6481,-42.6636,19.2871,-58.96
1778683089.947386,513633,-0.1262,-0.6928,0.6262,-42.6636,22.644,-60.0586
1778683089.949485,513634,-0.1214,-0.703,0.6022,-42.7856,26.7944,-61.1572
1778683089.954695,513635,-0.1233,-0.7155,0.5898,-43.7622,30.7007,-62.3779
1778683089.963821,513636,-0.1233,-0.7243,0.5822,-43.5181,34.8511,-63.0493
1778683089.963821,513637,-0.1297,-0.7401,0.5637,-43.7012,38.8794,-63.4155
1778683089.967571,513638,-0.146,-0.7558,0.5517,-43.2129,42.3584,-63.3545
1778683089.969884,513639,-0.1699,-0.7624,0.5476,-42.4194,44.7388,-63.2324
1778683089.972157,513640,-0.2007,-0.7748,0.5461,-41.748,46.5698,-63.1714
1778683089.980803,513641,-0.2346,-0.7899,0.5527,-41.0156,47.4243,-63.1104
1778683089.983917,513642,-0.2656,-0.8002,0.5603,-39.856,47.1802,-62.9272
1778683089.988980,513643,-0.2984,-0.8102,0.5749,-38.6963,46.7529,-62.7441
1778683089.988980,513644,-0.323,-0.8239,0.5891,-38.269,45.2271,-62.6831
1778683089.997598,513645,-0.3479,-0.8295,0.5986,-36.6211,44.1895,-62.6831
1778683090.005573,513646,-0.3667,-0.8434,0.6037,-36.0718,41.9922,-62.7441
1778683090.005573,513647,-0.386,-0.8488,0.6125,-34.8511,39.978,-62.8662
1778683090.005573,513648,-0.3967,-0.8551,0.6223,-33.4473,37.8418,-62.8052
1778683090.015069,513649,-0.4036,-0.8605,0.6303,-32.5317,35.5225,-62.9883
1778683090.022273,513650,-0.406,-0.8661,0.6359,-31.7383,34.0576,-62.9883
1778683090.027268,513651,-0.409,-0.87,0.643,-30.9448,31.8604,-62.9883
1778683090.031052,513652,-0.4041,-0.8756,0.6472,-31.311,29.9683,-63.1104
1778683090.031052,513653,-0.3924,-0.8769,0.6413,-30.8228,28.5034,-63.4155
1778683090.034628,513654,-0.3718,-0.8852,0.6337,-31.3721,27.4048,-63.8428
1778683090.037843,513655,-0.3484,-0.8893,0.624,-31.6162,26.8555,-64.3921
1778683090.039082,513656,-0.3208,-0.8952,0.6101,-32.2266,27.3438,-65.0024
1778683090.039082,513657,-0.2942,-0.9001,0.5939,-32.5928,28.0151,-65.4907
1778683090.039082,513658,-0.2686,-0.9047,0.5834,-33.3252,29.7852,-65.8569
1778683090.050334,513659,-0.2437,-0.9115,0.5705,-33.6914,32.5317,-66.1011
1778683090.053559,513660,-0.2251,-0.9159,0.5554,-33.9355,36.0107,-66.3452
1778683090.055781,513661,-0.2078,-0.9132,0.552,-35.0342,40.2222,-66.3452
1778683090.055781,513662,-0.1929,-0.9176,0.5278,-35.8276,44.5557,-66.2842
1778683090.072356,513663,-0.1821,-0.9306,0.5117,-36.1938,48.7061,-66.04
1778683090.072356,513664,-0.1797,-0.9328,0.4975,-36.0107,52.002,-65.918
1778683090.075706,513665,-0.1843,-0.9396,0.489,-37.3535,54.8706,-65.7959
1778683090.080780,513666,-0.2007,-0.9342,0.4763,-37.1094,57.4951,-65.6738
1778683090.080780,513667,-0.2202,-0.9445,0.4619,-37.5366,59.6313,-65.4907
1778683090.080780,513668,-0.2439,-0.9572,0.4553,-36.8652,59.8755,-64.8804
1778683090.089009,513669,-0.272,-0.9709,0.4589,-37.7197,59.1431,-63.9038
1778683090.092636,513670,-0.2954,-0.9889,0.4633,-36.1328,57.5562,-62.9272
1778683090.097825,513671,-0.3306,-0.9953,0.4719,-33.3862,56.1523,-61.8896
1778683090.097825,513672,-0.3533,-0.9982,0.4738,-30.8228,54.4434,-60.3027
1778683090.105569,513673,-0.3745,-0.9999,0.4765,-28.6255,52.124,-58.8989
1778683090.105569,513674,-0.3933,-0.9992,0.478,-26.062,48.584,-57.1899
1778683090.122816,513675,-0.4114,-0.9958,0.4816,-23.6816,45.5933,-55.2979
1778683090.122816,513676,-0.4238,-0.9843,0.487,-21.7285,43.0908,-53.2837
1778683090.122816,513677,-0.4397,-0.9767,0.4853,-19.2871,39.917,-51.0864
1778683090.122816,513678,-0.4512,-0.9648,0.4826,-17.9443,37.1704,-48.8281
1778683090.122816,513679,-0.4509,-0.9594,0.486,-16.7847,34.2407,-47.0581
1778683090.122816,513680,-0.449,-0.9547,0.4863,-16.2354,30.3955,-44.6167
1778683090.140834,513681,-0.4441,-0.9482,0.4824,-12.6343,27.9541,-42.2363
1778683090.140834,513682,-0.4302,-0.9401,0.4848,-12.5122,25.5127,-40.0391
1778683090.140834,513683,-0.4151,-0.9362,0.4816,-11.4746,22.7051,-37.9028
1778683090.140834,513684,-0.3911,-0.9316,0.4807,-10.8032,20.9961,-36.1938
1778683090.140834,513685,-0.3665,-0.9272,0.4677,-9.4604,19.6533,-34.4849
1778683090.155444,513686,-0.332,-0.9313,0.448,-9.9487,17.8833,-32.959
1778683090.155444,513687,-0.3242,-0.9171,0.4228,-9.4604,18.7378,-30.8838
1778683090.155444,513688,-0.3045,-0.911,0.4104,-9.2773,18.1274,-28.8696
1778683090.171359,513689,-0.2927,-0.9101,0.4021,-9.5215,18.6157,-27.1606
1778683090.172263,513690,-0.2791,-0.914,0.3942,-9.4604,19.3481,-25.4517
1778683090.172263,513691,-0.2713,-0.9191,0.3862,-10.0098,20.2026,-23.4985
1778683090.172263,513692,-0.2686,-0.9274,0.3801,-9.7046,21.8506,-21.2402
1778683090.188152,513693,-0.271,-0.9284,0.3806,-9.0942,23.5596,-19.165
1778683090.189284,513694,-0.2771,-0.932,0.3818,-7.8735,25.1465,-17.0898
1778683090.189284,513695,-0.2842,-0.9337,0.3811,-7.0801,26.8555,-15.2588
1778683090.189284,513696,-0.3025,-0.9413,0.3818,-6.8359,27.9541,-13.4277
1778683090.205505,513697,-0.3113,-0.9403,0.3825,-5.0659,29.1748,-11.5356
1778683090.205505,513698,-0.3311,-0.9389,0.382,-3.9673,29.9683,-9.7046
1778683090.205505,513699,-0.3528,-0.933,0.3903,-3.2349,29.8462,-8.0566
1778683090.205505,513700,-0.3684,-0.9316,0.3923,-1.9531,28.9307,-6.3477
1778683090.217512,513701,-0.3838,-0.9247,0.3913,0.5493,28.1372,-4.6387
1778683090.222025,513702,-0.3943,-0.9164,0.3942,1.4038,26.5503,-3.1128
1778683090.222025,513703,-0.4011,-0.9071,0.3962,2.2583,24.7803,-1.5869
1778683090.222025,513704,-0.3963,-0.9005,0.4021,2.0752,22.9492,-0.2441
1778683090.238921,513705,-0.3926,-0.8918,0.4062,3.3569,21.2402,0.9766
1778683090.238921,513706,-0.3845,-0.8835,0.4064,4.0894,19.7144,2.1973
1778683090.238921,513707,-0.3782,-0.8754,0.4064,4.5776,18.4937,3.479
1778683090.238921,513708,-0.3694,-0.8705,0.4064,4.0283,18.0054,4.6997
1778683090.238921,513709,-0.3662,-0.8651,0.4047,4.6997,17.9443,5.9814
1778683090.238921,513710,-0.3591,-0.8622,0.404,3.6621,18.1885,7.2632
1778683090.255459,513711,-0.3545,-0.8581,0.4001,3.2349,18.4937,8.4839
1778683090.255459,513712,-0.3523,-0.8527,0.3952,3.6011,19.165,9.5825
1778683090.255459,513713,-0.3516,-0.8471,0.3923,3.9062,19.8975,10.8032
1778683090.255459,513714,-0.3445,-0.8446,0.3884,5.0049,20.5688,11.7798
1778683090.272080,513715,-0.3396,-0.8354,0.3894,4.6997,21.5454,12.7563
1778683090.272080,513716,-0.336,-0.8254,0.3869,4.9438,21.9727,13.6719
1778683090.272080,513717,-0.3303,-0.8161,0.3823,5.6152,22.7661,14.4043
1778683090.285491,513718,-0.325,-0.807,0.3798,5.6152,23.3765,15.0757
1778683090.288893,513719,-0.3228,-0.7973,0.3774,5.0049,24.0479,15.7471
1778683090.305481,513720,-0.3196,-0.7892,0.375,6.1035,24.0479,16.4185
1778683090.305481,513721,-0.3191,-0.7824,0.3715,4.9438,24.1699,17.0898
1778683090.305481,513722,-0.3203,-0.776,0.3669,4.1504,23.8647,17.5171
1778683090.305481,513723,-0.3179,-0.7763,0.3686,3.0518,23.1323,18.0054
1778683090.305481,513724,-0.3176,-0.778,0.3762,2.9297,22.644,18.1885
1778683090.313000,513725,-0.3213,-0.7826,0.3754,1.8311,21.6675,18.5547
1778683090.316996,513726,-0.3157,-0.7863,0.3769,1.4038,21.1792,18.8599
1778683090.322637,513727,-0.3176,-0.7948,0.3811,1.0376,20.6299,19.2871
1778683090.322637,513728,-0.3201,-0.8031,0.385,1.8921,20.3857,19.8975
1778683090.339589,513729,-0.3223,-0.8105,0.3862,1.2817,19.8975,20.4468
1778683090.345055,513730,-0.3281,-0.818,0.3864,1.3428,19.7754,21.0571
1778683090.345055,513731,-0.3299,-0.8227,0.3837,2.6855,20.1416,21.7896
1778683090.345055,513732,-0.3335,-0.828,0.3808,3.9673,20.6299,22.4609
1778683090.346056,513733,-0.3357,-0.8278,0.384,4.3335,21.1792,23.0713
1778683090.349052,513734,-0.3413,-0.829,0.3781,5.3101,21.3013,23.5596
1778683090.355994,513735,-0.3421,-0.8234,0.3767,6.5918,22.644,24.0479
1778683090.355994,513736,-0.343,-0.82,0.373,7.0801,23.6816,24.4141
1778683090.364589,513737,-0.3457,-0.8168,0.3759,8.667,24.4751,24.6582
1778683090.365630,513738,-0.3455,-0.81,0.3742,8.2397,26.123,24.7803
1778683090.370118,513739,-0.3413,-0.8075,0.3735,8.1177,27.4048,24.9634
1778683090.372213,513740,-0.3406,-0.8046,0.3723,10.0098,29.4189,24.9023
1778683090.376169,513741,-0.3379,-0.8019,0.3718,9.1553,31.3721,25.0244
1778683090.376169,513742,-0.334,-0.8017,0.3701,8.3618,33.1421,25.1465
1778683090.386602,513743,-0.3277,-0.8019,0.3696,8.2397,34.9731,25.3296
1778683090.387637,513744,-0.3257,-0.8022,0.3662,7.9956,36.7432,25.5127
1778683090.397092,513745,-0.3223,-0.8007,0.3623,9.1553,39.0015,25.7568
1778683090.400212,513746,-0.323,-0.8014,0.361,9.5215,40.8936,26.001
1778683090.400212,513747,-0.3213,-0.7953,0.3601,9.7046,43.1519,26.3672
1778683090.405823,513748,-0.3194,-0.7943,0.3605,8.9722,44.6777,26.7334
1778683090.405823,513749,-0.3206,-0.7909,0.3581,9.7046,46.6919,26.9775
1778683090.405823,513750,-0.3159,-0.7865,0.3557,8.8501,48.0957,27.4048
1778683090.416645,513751,-0.3123,-0.7851,0.3503,8.3008,49.8657,27.8931
1778683090.422264,513752,-0.315,-0.7829,0.3457,8.8501,51.2695,28.2593
1778683090.428092,513753,-0.3181,-0.7821,0.3376,8.3008,52.4292,28.6255
1778683090.430090,513754,-0.3198,-0.7843,0.3337,6.6528,53.4058,29.0527
1778683090.434131,513755,-0.3201,-0.7858,0.3232,5.6763,53.833,29.2969
1778683090.439418,513756,-0.3252,-0.7875,0.32,4.4556,54.6875,29.6021
1778683090.439418,513757,-0.3345,-0.7897,0.3176,4.2114,54.9316,29.8462
1778683090.439418,513758,-0.3389,-0.7978,0.3149,3.2349,54.8706,30.1514
1778683090.448451,513759,-0.3477,-0.8046,0.3134,2.9907,54.8096,30.2734
1778683090.451449,513760,-0.3513,-0.8058,0.3159,1.709,54.1992,30.3345
1778683090.456721,513761,-0.3621,-0.8092,0.3147,0.4272,53.4058,30.3345
1778683090.456721,513762,-0.3699,-0.8168,0.3168,0.2441,52.4292,30.3345
1778683090.465075,513763,-0.3787,-0.8234,0.3183,-0.1831,50.9033,30.2734
1778683090.467106,513764,-0.3848,-0.83,0.3217,-1.0376,49.3774,30.2124
1778683090.472206,513765,-0.3921,-0.8329,0.3227,-2.8687,48.0957,30.0293
1778683090.472206,513766,-0.3985,-0.84,0.3269,-3.2959,45.8374,29.9072
1778683090.472206,513767,-0.4007,-0.8495,0.3364,-4.3945,43.7012,29.6631
1778683090.484936,513768,-0.4036,-0.8566,0.3459,-4.6997,41.2598,29.2969
1778683090.488921,513769,-0.408,-0.862,0.3513,-4.6997,39.1235,28.7476
1778683090.493838,513770,-0.4021,-0.8712,0.3557,-4.8218,36.6821,28.3813
1778683090.499868,513771,-0.4036,-0.8774,0.3591,-5.0659,34.2407,28.0151
1778683090.499868,513772,-0.4058,-0.8769,0.3627,-6.1035,31.6162,27.5879
1778683090.505604,513773,-0.4011,-0.8776,0.3627,-5.5542,29.2358,27.2217
1778683090.510128,513774,-0.397,-0.8817,0.3625,-5.0049,26.9165,26.7334
1778683090.510128,513775,-0.3967,-0.8761,0.3603,-5.4932,24.7803,26.2451
1778683090.515805,513776,-0.3858,-0.8744,0.3584,-5.9814,22.1558,25.7568
1778683090.519803,513777,-0.377,-0.8683,0.3535,-5.4321,20.5078,25.2686
1778683090.539896,513778,-0.3675,-0.8588,0.343,-5.6763,18.8599,24.8413
1778683090.539896,513779,-0.3601,-0.8544,0.3354,-5.5542,17.2119,24.292
1778683090.539896,513780,-0.3543,-0.8454,0.3315,-6.5918,15.8691,23.8037
1778683090.539896,513781,-0.353,-0.8378,0.3293,-6.4087,15.1367,23.4985
1778683090.542660,513782,-0.3491,-0.8339,0.332,-7.019,13.855,23.3154
1778683090.544659,513783,-0.3518,-0.8283,0.3332,-7.0801,13.6108,23.2544
1778683090.545689,513784,-0.3545,-0.8241,0.3378,-8.2397,12.5122,23.3154
1778683090.556226,513785,-0.3574,-0.8205,0.3427,-8.3618,11.8408,23.4375
1778683090.556226,513786,-0.3601,-0.8168,0.3535,-8.8501,11.4746,23.3765
1778683090.556226,513787,-0.3623,-0.8129,0.3603,-8.1177,11.0474,23.4985
1778683090.565935,513788,-0.3616,-0.8112,0.3603,-8.728,10.9863,23.6816
1778683090.568933,513789,-0.3679,-0.8136,0.3674,-10.0708,11.0474,23.8037
1778683090.572416,513790,-0.3709,-0.8112,0.3693,-10.1318,10.6201,23.9258
1778683090.572416,513791,-0.3701,-0.8139,0.3779,-10.376,10.6201,24.1089
1778683090.581569,513792,-0.3723,-0.809,0.3803,-11.2915,10.376,24.353
1778683090.583601,513793,-0.3743,-0.8107,0.3833,-11.2305,10.0708,24.4141
1778683090.588038,513794,-0.3706,-0.8119,0.3835,-11.6577,9.2163,24.4141
1778683090.597300,513795,-0.3692,-0.8124,0.3867,-12.6343,9.0332,24.4141
1778683090.600330,513796,-0.3635,-0.8153,0.3825,-13.1836,8.5449,24.4751
1778683090.604860,513797,-0.3543,-0.8239,0.3793,-15.3198,7.6294,24.1699
1778683090.606169,513798,-0.3513,-0.829,0.3818,-15.8691,7.0801,24.1089
1778683090.612642,513799,-0.3543,-0.8371,0.3806,-16.6626,6.958,23.8647
1778683090.614639,513800,-0.3565,-0.8456,0.3884,-16.7847,6.958,23.7427
1778683090.615664,513801,-0.3623,-0.8532,0.3918,-17.334,6.7749,23.6816
1778683090.622262,513802,-0.3626,-0.8595,0.3925,-17.8833,5.9814,23.2544
1778683090.648113,513803,-0.367,-0.8622,0.3918,-17.8223,5.249,22.8882
1778683090.648113,513804,-0.3694,-0.8664,0.395,-17.334,3.8452,22.522
1778683090.648113,513805,-0.3743,-0.8683,0.4055,-16.1133,2.6245,22.1558
1778683090.648113,513806,-0.3804,-0.8676,0.4172,-15.625,1.0376,21.8506
1778683090.648113,513807,-0.3784,-0.8647,0.4238,-15.2588,-0.9766,21.7285
1778683090.648113,513808,-0.3782,-0.8576,0.4316,-13.7939,-3.0518,21.6064
1778683090.652868,513809,-0.3699,-0.8488,0.4375,-13.2446,-4.0283,21.6675
1778683090.657615,513810,-0.3591,-0.8373,0.4423,-12.9395,-5.249,21.7285
1778683090.668189,513811,-0.3587,-0.8275,0.447,-11.6577,-6.1035,21.7896
1778683090.668189,513812,-0.353,-0.8151,0.4497,-11.3525,-6.6528,21.9727
1778683090.669157,513813,-0.3465,-0.8014,0.4472,-10.9253,-6.2866,22.3389
1778683090.672187,513814,-0.3462,-0.7924,0.4465,-10.6812,-5.5542,22.8271
1778683090.680443,513815,-0.3433,-0.7819,0.4443,-10.6201,-4.7607,23.1934
1778683090.684496,513816,-0.344,-0.7724,0.4477,-10.7422,-3.8452,23.6816
1778683090.684496,513817,-0.3443,-0.7685,0.4472,-10.8032,-2.9907,24.1699
1778683090.689278,513818,-0.3445,-0.766,0.4484,-10.6812,-1.4648,24.7192
1778683090.689278,513819,-0.3438,-0.7629,0.4499,-10.9863,-0.1221,25.0854
1778683090.701187,513820,-0.3496,-0.7629,0.4475,-11.1694,1.4038,25.4517
1778683090.701187,513821,-0.3543,-0.7631,0.4487,-11.4136,2.4414,25.8179
1778683090.706089,513822,-0.355,-0.7658,0.4499,-12.2681,3.418,26.062
1778683090.706089,513823,-0.3567,-0.7726,0.4489,-11.8408,4.3335,26.1841
1778683090.714936,513824,-0.3572,-0.7787,0.4467,-12.207,4.5776,26.3062
1778683090.715826,513825,-0.355,-0.7868,0.4443,-11.8408,5.188,26.3062
1778683090.715826,513826,-0.3555,-0.7975,0.4409,-12.3291,5.188,26.1841
1778683090.722314,513827,-0.3521,-0.8039,0.4375,-11.4746,5.3101,26.123
1778683090.746695,513828,-0.3472,-0.808,0.4326,-10.6812,6.3477,25.8789
1778683090.746695,513829,-0.3533,-0.8136,0.4252,-10.0708,6.2256,25.5127
1778683090.746695,513830,-0.3504,-0.8122,0.4177,-9.5215,6.2256,25.2075
1778683090.746695,513831,-0.356,-0.8178,0.4133,-9.7046,5.9204,24.7803
1778683090.747604,513832,-0.3618,-0.8195,0.4121,-8.606,5.3711,24.5361
1778683090.758990,513833,-0.3682,-0.8195,0.4135,-7.2632,4.6997,24.1089
1778683090.758990,513834,-0.374,-0.8158,0.4174,-6.4697,3.9062,23.6206
1778683090.776691,513835,-0.3797,-0.8146,0.4223,-4.5776,2.7466,23.0713
1778683090.776691,513836,-0.3811,-0.8095,0.4252,-4.8218,1.5869,22.3999
1778683090.776691,513837,-0.3819,-0.8112,0.4287,-4.3335,0.5493,21.8506
1778683090.776691,513838,-0.385,-0.8087,0.4338,-4.2725,-0.8545,21.3013
1778683090.781430,513839,-0.3836,-0.8127,0.4375,-4.1504,-1.5259,20.9351
1778683090.781430,513840,-0.3806,-0.8149,0.4382,-4.0283,-2.1362,20.6909
1778683090.782787,513841,-0.3792,-0.8212,0.4333,-4.9438,-2.6245,20.3247
1778683090.788309,513842,-0.3804,-0.8254,0.4326,-4.2114,-2.6855,20.2026
1778683090.789507,513843,-0.3765,-0.8275,0.4245,-3.479,-2.9907,20.0195
1778683090.796275,513844,-0.3745,-0.8319,0.413,-3.3569,-3.54,19.8364
1778683090.798391,513845,-0.3814,-0.8351,0.4052,-2.1362,-3.2959,19.6533
1778683090.813641,513846,-0.3828,-0.8402,0.3984,-1.6479,-3.1738,19.4702
1778683090.822234,513847,-0.386,-0.8412,0.3903,-1.8311,-3.0518,19.2261
1778683090.828213,513848,-0.3875,-0.8481,0.3859,-3.0518,-3.1738,18.7988
1778683090.829048,513850,-0.3889,-0.8698,0.3754,-2.6855,-2.7466,17.8223
1778683090.851930,513851,-0.3887,-0.88,0.3703,-2.9297,-2.7466,17.2119
1778683090.851930,513852,-0.3887,-0.8949,0.3686,-4.0894,-2.3804,16.6016
1778683090.852975,513853,-0.3889,-0.9149,0.3659,-4.7607,-1.8311,15.9302
1778683090.852975,513854,-0.3841,-0.9384,0.3598,-7.1411,-1.6479,14.8926
1778683090.852975,513855,-0.3882,-0.9638,0.362,-8.5449,-0.6714,13.9771
1778683090.852975,513856,-0.3877,-0.9862,0.3593,-9.8877,0.5493,12.8784
1778683090.853970,513857,-0.3938,-1.0121,0.3601,-11.2915,1.0986,11.7798
1778683090.853970,513858,-0.4019,-1.0409,0.3603,-11.6577,2.7466,10.498
1778683090.854949,513859,-0.4099,-1.0602,0.3552,-13.0615,3.54,9.2773
1778683090.856803,513860,-0.4268,-1.089,0.3461,-14.2822,4.0894,7.9956
1778683090.856803,513861,-0.4439,-1.1083,0.3361,-14.4653,4.3335,6.7139
1778683090.856803,513862,-0.4656,-1.1344,0.3337,-14.4653,4.0283,5.3101
1778683090.868184,513863,-0.4846,-1.1564,0.3327,-15.9302,3.418,4.0894
1778683090.871402,513864,-0.5039,-1.1811,0.3342,-15.3809,2.2583,2.6855
1778683090.872410,513865,-0.5139,-1.2028,0.3349,-16.4185,0.9155,1.2207
1778683090.872410,513866,-0.5225,-1.2257,0.3366,-17.0288,-0.5493,-0.3052
1778683090.872410,513867,-0.5308,-1.2504,0.3427,-17.2729,-2.0142,-1.9531
1778683090.889280,513868,-0.531,-1.277,0.3549,-17.0898,-3.2349,-3.54
1778683090.892163,513869,-0.5322,-1.3014,0.3708,-16.7847,-4.1504,-4.8828
1778683090.898700,513870,-0.5281,-1.3244,0.3815,-16.4185,-5.3711,-5.9204
1778683090.899812,513871,-0.5281,-1.3417,0.3935,-14.1602,-5.8594,-6.2866
1778683090.905612,513872,-0.5296,-1.3544,0.4021,-13.0005,-5.7373,-6.5308
1778683090.905612,513873,-0.5322,-1.3615,0.4094,-10.0098,-5.249,-6.2256
1778683090.905612,513874,-0.5315,-1.3603,0.4199,-8.0566,-5.127,-5.7373
1778683090.905612,513875,-0.5383,-1.3522,0.4304,-5.7983,-3.9673,-4.8218
1778683090.921400,513876,-0.5408,-1.3378,0.4355,-2.3193,-3.54,-3.6621
1778683090.923112,513877,-0.5459,-1.3119,0.4313,0.3052,-2.9297,-1.8921
1778683090.927399,513878,-0.5442,-1.2792,0.4292,3.7231,-2.3193,0.1831
1778683090.931433,513879,-0.5488,-1.2438,0.4279,6.4697,-2.3804,2.6245
1778683090.955795,513880,-0.5462,-1.2072,0.4248,9.1553,-2.0752,5.3711
1778683090.955795,513881,-0.5479,-1.1659,0.4228,11.9019,-1.9531,8.3618
1778683090.955795,513882,-0.5452,-1.1239,0.4172,14.2212,-3.0518,11.5967
1778683090.955795,513883,-0.5481,-1.0844,0.4104,15.8691,-4.1504,15.2588
1778683090.955795,513884,-0.5484,-1.0478,0.3972,16.6626,-5.188,19.104
1778683090.955795,513885,-0.5579,-1.0119,0.3852,16.6016,-7.3242,23.4985
1778683090.955795,513886,-0.5691,-0.9828,0.3723,17.7612,-9.8877,28.0762
1778683090.955795,513887,-0.5816,-0.9523,0.3632,18.1885,-12.9395,32.8979
1778683090.969125,513888,-0.5928,-0.9342,0.3571,18.1885,-16.7847,37.6587
1778683090.971409,513889,-0.6074,-0.9201,0.3457,18.6768,-21.8506,42.5415
1778683090.972517,513890,-0.6165,-0.9062,0.3381,18.6157,-27.8931,47.4243
1778683090.972517,513891,-0.6245,-0.8991,0.3327,18.1274,-33.8745,52.1851
1778683090.985270,513892,-0.6338,-0.902,0.3339,18.1274,-40.1611,56.5186
1778683090.989276,513893,-0.6343,-0.9106,0.3408,17.395,-47.1191,60.9741
1778683090.989428,513894,-0.6311,-0.924,0.3454,16.4795,-54.1992,65.0635
1778683090.995322,513895,-0.6236,-0.9469,0.3449,16.4795,-60.3027,68.9087
1778683091.001371,513896,-0.6099,-0.9726,0.3422,15.3809,-66.04,72.3877
1778683091.005439,513897,-0.593,-1.0019,0.3398,14.9536,-71.7163,75.4395
1778683091.009158,513898,-0.572,-1.0299,0.3396,15.3809,-75.8057,78.2471
1778683091.014155,513899,-0.5493,-1.0653,0.3359,16.0522,-79.5288,80.5664
1778683091.015208,513900,-0.5252,-1.0849,0.3337,17.4561,-81.7871,82.8247
1778683091.022135,513901,-0.4949,-1.1095,0.3349,19.8975,-83.0688,84.8389
1778683091.022135,513902,-0.4758,-1.1222,0.332,22.1558,-83.4961,86.4868
1778683091.030510,513903,-0.4558,-1.1259,0.3286,24.5361,-82.6416,88.0127
1778683091.032352,513904,-0.4361,-1.1242,0.3264,28.1372,-81.1768,89.5386
1778683091.039273,513905,-0.417,-1.1195,0.3237,30.0903,-78.4912,90.7593
1778683091.039273,513906,-0.4014,-1.1115,0.32,32.1045,-75.8057,91.5527
1778683091.039273,513907,-0.3843,-1.0988,0.3181,33.6304,-71.8994,92.5293
1778683091.039273,513908,-0.3772,-1.0854,0.3149,35.7666,-67.2607,93.0176
1778683091.057223,513909,-0.367,-1.0705,0.3095,36.8652,-62.0728,93.5059
1778683091.057223,513910,-0.3618,-1.0585,0.3068,37.6587,-56.2744,93.9331
1778683091.059176,513911,-0.3609,-1.0409,0.2993,38.3911,-50.415,94.2993
1778683091.062606,513912,-0.3599,-1.028,0.291,38.9404,-44.7998,94.4824
1778683091.066602,513913,-0.3599,-1.0133,0.2876,38.4521,-39.4287,94.6045
1778683091.067660,513914,-0.3631,-1.0028,0.2805,38.5132,-33.5693,94.4214
1778683091.072685,513915,-0.3628,-0.9919,0.2746,38.5132,-28.5645,94.1772
1778683091.079891,513916,-0.3655,-0.9779,0.2712,38.8184,-23.3154,93.811
1778683091.082889,513917,-0.3704,-0.964,0.2639,39.4287,-18.6768,93.5669
1778683091.083912,513918,-0.3753,-0.9511,0.2607,39.4287,-14.8926,93.2617
1778683091.089246,513919,-0.3782,-0.9352,0.2587,39.3677,-10.9253,92.7734
1778683091.089246,513920,-0.3899,-0.9174,0.2526,39.7339,-8.1787,92.2241
1778683091.098999,513921,-0.3941,-0.9018,0.2529,40.0391,-6.0425,91.5527
1778683091.105366,513922,-0.4021,-0.8827,0.2497,41.0156,-3.7231,90.7593
1778683091.106369,513923,-0.4143,-0.8676,0.2514,40.1611,-2.6245,90.0269
1778683091.116089,513924,-0.4199,-0.8534,0.2619,39.3677,-2.8687,89.1724
1778683091.116089,513925,-0.4314,-0.839,0.2639,39.856,-3.6621,88.562
1778683091.121220,513926,-0.4441,-0.8297,0.2709,39.978,-4.6387,87.8906
1778683091.125552,513927,-0.4558,-0.817,0.2727,38.7573,-6.7749,87.1582
1778683091.127909,513928,-0.4646,-0.8056,0.2722,37.7197,-9.4604,86.5479
1778683091.130998,513929,-0.47,-0.7965,0.2719,38.5742,-12.3901,85.9375
1778683091.132945,513930,-0.4727,-0.7875,0.2683,38.147,-16.2354,85.2661
1778683091.138891,513931,-0.4661,-0.7741,0.2583,38.4521,-20.2637,84.6558
1778683091.155504,513932,-0.4661,-0.7643,0.2514,38.8184,-23.4985,84.2285
1778683091.155504,513933,-0.4578,-0.7533,0.2497,39.6118,-27.2827,83.8013
1778683091.155504,513934,-0.4522,-0.7445,0.2539,39.3677,-30.7007,83.6182
1778683091.155504,513935,-0.4487,-0.7314,0.2509,39.6729,-33.8135,83.6182
1778683091.165258,513936,-0.4436,-0.7228,0.2502,40.2832,-36.8652,83.8013
1778683091.165258,513937,-0.4361,-0.715,0.2502,40.1001,-39.4897,84.1675
1778683091.168586,513938,-0.4321,-0.7052,0.2497,40.1611,-41.5649,84.5947
1778683091.172816,513939,-0.4219,-0.6969,0.2519,39.978,-43.2129,84.8999
1778683091.175249,513940,-0.4121,-0.6938,0.2551,39.3677,-44.5557,85.3271
1778683091.180616,513941,-0.4002,-0.6881,0.2536,39.6118,-45.5933,85.8154
1778683091.184135,513942,-0.3943,-0.6872,0.2529,38.9404,-45.8374,86.1816
1778683091.184566,513943,-0.3877,-0.6847,0.2558,39.0015,-44.9829,86.792
1778683091.189641,513944,-0.3782,-0.6857,0.2597,38.208,-44.0063,87.2803
1778683091.195151,513945,-0.3699,-0.6889,0.2605,37.5366,-42.6636,87.8296
1778683091.198694,513946,-0.3648,-0.6925,0.2617,36.6211,-40.7104,88.0127
1778683091.198694,513947,-0.3562,-0.696,0.2653,36.1328,-37.9639,88.4399
1778683091.205585,513948,-0.3545,-0.6969,0.268,36.1938,-34.6069,88.562
1778683091.214215,513949,-0.3516,-0.7028,0.2683,35.3394,-30.9448,88.623
1778683091.220400,513950,-0.3362,-0.7072,0.2739,33.9966,-22.583,88.0127
1778683091.222226,513951,-0.3338,-0.7118,0.2753,33.1421,-18.6157,87.4634
1778683091.228186,513952,-0.3382,-0.7126,0.2761,33.02,-14.5874,86.9141
1778683091.231363,513953,-0.3474,-0.7138,0.278,32.5317,-11.2915,86.1816
1778683091.233469,513954,-0.3613,-0.7106,0.2756,32.7759,-8.8501,85.6323
1778683091.233469,513955,-0.3833,-0.7072,0.2749,32.6538,-6.8359,84.6558
1778683091.247570,513956,-0.4138,-0.7045,0.2788,31.8604,-5.6152,83.6182
1778683091.248111,513957,-0.4361,-0.704,0.2795,31.3721,-4.7607,82.2754
1778683091.250774,513958,-0.4546,-0.7038,0.2827,31.0059,-5.7983,80.6885
1778683091.255674,513959,-0.4705,-0.7038,0.2897,29.9683,-7.1411,78.9795
1778683091.255674,513960,-0.4763,-0.705,0.2954,30.9448,-9.2773,77.1484
1778683091.262663,513961,-0.4815,-0.7035,0.3056,30.8228,-11.6577,75.3784
1778683091.265554,513962,-0.4829,-0.703,0.3144,31.189,-13.6108,73.9136
1778683091.265554,513963,-0.4793,-0.6991,0.3227,31.9824,-15.1367,72.4487
1778683091.272448,513964,-0.4749,-0.695,0.3313,32.4707,-16.7847,70.9229
1778683091.279889,513965,-0.4707,-0.6955,0.3398,33.2031,-17.7002,69.5801
1778683091.281153,513966,-0.4641,-0.6896,0.343,33.9966,-17.8833,68.0542
1778683091.281153,513967,-0.4636,-0.6835,0.3454,33.3862,-17.395,66.7725
1778683091.289284,513968,-0.4614,-0.6794,0.3457,34.729,-16.4185,65.7959
1778683091.294768,513969,-0.4568,-0.6747,0.3447,35.4614,-14.0381,65.0024
1778683091.297458,513970,-0.4436,-0.673,0.3427,36.1938,-11.2915,64.27
1778683091.297458,513971,-0.4336,-0.6652,0.3352,37.4756,-7.2632,63.7207
1778683091.305802,513972,-0.4173,-0.6591,0.3305,37.2314,-2.5024,63.1104
1778683091.305802,513973,-0.4053,-0.6545,0.3266,37.2314,2.9907,62.6831
1778683091.318331,513974,-0.3965,-0.6488,0.3261,38.6353,9.3384,62.1948
1778683091.320408,513975,-0.3909,-0.644,0.3254,37.7808,16.1743,61.7676
1778683091.322401,513976,-0.3889,-0.6396,0.3242,37.2925,22.9492,61.4014
1778683091.322401,513977,-0.3906,-0.6359,0.3234,37.7808,29.4189,61.0352
1778683091.322401,513978,-0.4009,-0.6295,0.3281,37.1094,35.8276,60.6689
1778683091.322401,513979,-0.4202,-0.6295,0.3317,36.438,42.0532,60.0586
1778683091.356272,513980,-0.4346,-0.6303,0.3439,36.1328,47.9736,59.5093
1778683091.363313,513981,-0.4568,-0.6325,0.3581,35.2173,52.9785,58.5938
1778683091.363313,513982,-0.4807,-0.6337,0.3735,34.6069,56.8237,57.6172
1778683091.364391,513983,-0.5083,-0.641,0.3889,34.0576,59.6313,56.8237
1778683091.364391,513984,-0.5383,-0.6466,0.394,33.4473,61.6455,55.9692
1778683091.365369,513985,-0.5611,-0.6554,0.405,32.7148,62.0728,54.9927
1778683091.368106,513986,-0.5818,-0.6613,0.4133,31.9824,61.2183,53.9551
1778683091.369505,513987,-0.6021,-0.6693,0.4245,32.7148,59.1431,52.6733
1778683091.372351,513988,-0.6236,-0.6715,0.4375,32.8979,55.6641,51.4526
1778683091.372351,513989,-0.6321,-0.672,0.4526,33.3252,51.6357,49.9878
1778683091.372351,513990,-0.6463,-0.6769,0.4687,33.8135,47.4243,48.584
1778683091.386133,513991,-0.6529,-0.6718,0.4814,34.4849,42.2363,47.1191
1778683091.386133,513992,-0.6572,-0.6693,0.4924,35.3394,37.1704,45.7764
1778683091.395655,513993,-0.6585,-0.6669,0.4973,35.0952,32.6538,44.6167
1778683091.395655,513994,-0.6531,-0.6652,0.5039,35.4004,28.3203,43.5791
1778683091.398777,513995,-0.6475,-0.661,0.5063,34.79,24.0479,42.4805
1778683091.398777,513996,-0.638,-0.6608,0.5075,34.4849,20.874,41.626
1778683091.405937,513997,-0.6284,-0.6593,0.5063,33.9966,17.5781,40.7104
1778683091.415154,513998,-0.6172,-0.6632,0.5065,33.5083,15.4419,40.1611
1778683091.417413,513999,-0.6182,-0.6623,0.5048,34.1187,14.1602,39.856
1778683091.422375,514000,-0.607,-0.6703,0.5036,33.7524,14.1602,39.5508
1778683091.422375,514001,-0.605,-0.6735,0.5085,33.2031,14.5874,39.3066
1778683091.422375,514002,-0.5957,-0.6816,0.5134,34.3628,15.9302,39.3066
1778683091.422375,514003,-0.5923,-0.6894,0.5161,34.4849,18.1885,39.2456
1778683091.438809,514004,-0.5882,-0.6955,0.5168,33.9355,20.9961,39.4287
1778683091.441210,514005,-0.583,-0.7013,0.5217,34.9121,24.0479,39.6729
1778683091.443269,514006,-0.5801,-0.7065,0.528,35.5225,27.8931,39.856
1778683091.449340,514007,-0.5784,-0.7121,0.5263,35.8276,31.4941,39.978
1778683091.456041,514008,-0.5747,-0.7165,0.5314,35.8887,35.1562,40.1001
1778683091.456041,514009,-0.5718,-0.7209,0.538,36.8042,38.5132,40.2832
1778683091.456041,514010,-0.5733,-0.7218,0.5454,36.9263,41.8091,40.4663
1778683091.456041,514011,-0.5811,-0.7255,0.5546,37.4146,45.166,40.5884
1778683091.456041,514012,-0.5886,-0.727,0.5605,37.4756,47.9736,40.6494
1778683091.472500,514013,-0.6006,-0.7243,0.5678,38.147,49.8657,40.5273
1778683091.473253,514014,-0.6145,-0.7243,0.5764,38.208,52.124,40.4663
1778683091.478144,514015,-0.6297,-0.7238,0.5822,39.2456,53.4668,40.0391
1778683091.483003,514016,-0.6472,-0.7262,0.5886,38.6963,54.3213,39.6118
1778683091.486771,514017,-0.6646,-0.7282,0.5979,38.6353,54.0771,38.8184
1778683091.489069,514018,-0.6865,-0.7323,0.6064,38.147,53.6499,38.0859
1778683091.489069,514019,-0.7097,-0.737,0.6188,38.269,51.9409,36.9263
1778683091.489069,514020,-0.7283,-0.7458,0.6315,37.7808,49.4995,35.7056
1778683091.504641,514021,-0.74,-0.7524,0.6425,38.0249,46.875,34.4238
1778683091.506159,514022,-0.7532,-0.7641,0.6518,37.1094,42.9077,32.959
1778683091.509148,514023,-0.7566,-0.7697,0.6618,37.1704,39.6118,31.4941
1778683091.509148,514024,-0.7556,-0.7755,0.6691,37.7197,35.8887,30.0903
1778683091.522463,514025,-0.7495,-0.7804,0.6733,38.5742,32.2266,28.6255
1778683091.522463,514026,-0.7371,-0.7814,0.673,38.6353,28.7476,27.2827
1778683091.527412,514027,-0.7215,-0.7782,0.6647,39.4897,25.0854,25.8179
1778683091.531521,514028,-0.7085,-0.7729,0.6577,40.1001,22.644,24.4141
1778683091.536363,514029,-0.7029,-0.7633,0.6496,41.3818,21.2402,23.0103
1778683091.539285,514030,-0.6936,-0.7536,0.6494,41.9922,19.9585,21.4844
1778683091.539285,514031,-0.6861,-0.7421,0.6501,42.0532,19.2871,20.0806
1778683091.546522,514032,-0.6782,-0.7343,0.6545,42.7856,18.6157,18.6157
1778683091.555913,514033,-0.6758,-0.7255,0.6584,43.5791,18.5547,17.395
1778683091.555913,514034,-0.676,-0.7174,0.6665,42.6025,19.043,16.1743
1778683091.555913,514035,-0.6712,-0.7128,0.6765,41.626,19.7754,15.0757
1778683091.555913,514036,-0.6638,-0.7118,0.6838,41.2598,20.874,14.4653
1778683091.571512,514037,-0.6543,-0.7096,0.6882,41.626,22.0337,14.1602
1778683091.572677,514038,-0.6448,-0.7065,0.6965,42.2363,23.5596,14.1602
1778683091.572677,514039,-0.6338,-0.6991,0.7004,43.335,25.5127,14.5874
1778683091.572677,514040,-0.6248,-0.6916,0.7058,44.5557,27.6489,15.4419
1778683091.572677,514041,-0.6101,-0.6752,0.7067,45.8374,30.0293,16.6016
1778683091.572677,514042,-0.5989,-0.6596,0.7087,47.6685,32.7148,18.0054
1778683091.591886,514043,-0.5891,-0.6425,0.706,48.4009,35.4004,19.7754
1778683091.595240,514044,-0.5828,-0.6222,0.7016,50.8423,37.9639,21.6064
1778683091.597455,514045,-0.5718,-0.6024,0.6901,51.0254,40.2832,23.4375
1778683091.605664,514046,-0.5637,-0.5797,0.6774,51.5137,42.2974,25.3296
1778683091.607344,514047,-0.5625,-0.5568,0.6662,52.3071,44.0674,27.1606
1778683091.611732,514048,-0.5669,-0.5431,0.6582,52.7954,45.5933,29.0527
1778683091.615360,514049,-0.5713,-0.5307,0.645,53.0396,46.6919,30.9448
1778683091.632278,514050,-0.5808,-0.5209,0.6359,52.3682,46.875,32.7759
1778683091.632278,514051,-0.5835,-0.5185,0.6274,51.6968,46.814,34.4238
1778683091.633419,514052,-0.5906,-0.5204,0.6213,50.5981,46.5698,35.9497
1778683091.633419,514053,-0.5908,-0.5309,0.6188,49.4385,46.2646,37.1704
1778683091.635755,514054,-0.593,-0.5446,0.6198,48.3398,45.2881,38.208
1778683091.639059,514055,-0.5906,-0.5592,0.6179,47.2412,44.0674,38.8794
1778683091.641135,514056,-0.5933,-0.5771,0.6179,47.9126,43.0908,39.4897
1778683091.645642,514057,-0.5908,-0.5929,0.6176,47.3022,41.748,39.917
1778683091.655906,514058,-0.5838,-0.6103,0.6171,47.0581,40.1611,39.978
1778683091.655906,514059,-0.5784,-0.6215,0.6162,46.9971,39.0015,40.0391
1778683091.663420,514060,-0.572,-0.6366,0.6159,47.1802,37.7197,39.856
1778683091.663420,514061,-0.5586,-0.6435,0.6169,47.3633,36.438,39.3066
1778683091.672578,514062,-0.5491,-0.6488,0.6201,48.5229,35.7056,38.5742
1778683091.680465,514063,-0.541,-0.6542,0.6201,49.0723,35.0952,37.3535
1778683091.682329,514064,-0.533,-0.6574,0.6218,48.5229,34.8511,35.8887
1778683091.686176,514065,-0.5232,-0.6569,0.6213,49.3164,34.8511,34.2407
1778683091.689142,514066,-0.5169,-0.6576,0.6206,48.2788,35.2173,32.5317
1778683091.689142,514067,-0.5139,-0.6515,0.6225,49.1943,35.8887,30.7007
1778683091.691222,514068,-0.5108,-0.6525,0.6276,48.645,35.9497,28.8696
1778683091.698059,514069,-0.5059,-0.6483,0.6254,49.2554,36.1938,26.9165
1778683091.705896,514070,-0.5029,-0.6381,0.6225,48.8281,36.499,24.9634
1778683091.705896,514071,-0.5047,-0.6339,0.6203,48.4009,36.6821,23.1323
1778683091.707452,514072,-0.4993,-0.6234,0.6154,49.1333,36.9263,21.4844
1778683091.707452,514073,-0.4944,-0.6164,0.6079,49.4995,37.7808,20.0195
1778683091.714560,514074,-0.4903,-0.6056,0.602,48.8892,38.208,18.7378
1778683091.716364,514075,-0.4815,-0.5917,0.5878,49.1943,39.0625,17.4561
1778683091.723903,514076,-0.4741,-0.5758,0.5769,48.645,39.917,16.5405
1778683091.730021,514077,-0.4663,-0.5624,0.5681,49.1943,40.6494,15.7471
1778683091.731079,514078,-0.4632,-0.5448,0.5561,49.1333,41.626,15.1367
1778683091.740976,514079,-0.4636,-0.5287,0.5485,48.0347,42.5415,14.7095
1778683091.740976,514080,-0.4629,-0.5129,0.5405,48.0957,43.8232,14.4653
1778683091.743761,514081,-0.4661,-0.5026,0.5354,47.6074,44.5557,14.4043
1778683091.745382,514082,-0.4727,-0.4897,0.5312,47.9126,45.0439,14.4653
1778683091.748357,514083,-0.4727,-0.4809,0.531,48.0957,45.2271,14.3433
1778683091.771618,514084,-0.4729,-0.4723,0.5329,47.9736,45.7764,14.2212
1778683091.771618,514085,-0.4661,-0.4635,0.5371,47.2412,46.0205,14.0991
1778683091.775824,514086,-0.4646,-0.4589,0.5383,47.9126,46.3867,14.1602
1778683091.775824,514087,-0.4673,-0.4482,0.5378,48.1567,46.814,14.3433
1778683091.775824,514088,-0.4641,-0.4396,0.5361,48.4619,47.0581,14.4653
1778683091.780384,514089,-0.4624,-0.4328,0.5349,48.2178,47.5464,14.5874
1778683091.780384,514090,-0.4685,-0.4233,0.5349,48.7671,47.4854,14.8315
1778683091.784891,514091,-0.4773,-0.414,0.531,48.2788,47.7905,15.0146
1778683091.787133,514092,-0.4832,-0.4064,0.5258,49.5605,47.8516,15.1367
1778683091.797850,514093,-0.4881,-0.4047,0.5224,48.7671,47.3022,15.0757
1778683091.797850,514094,-0.4915,-0.4003,0.5158,48.584,46.1426,15.0146
1778683091.800841,514095,-0.4986,-0.3962,0.5078,48.4619,44.7388,14.6484
1778683091.802720,514096,-0.5039,-0.3922,0.509,49.3774,42.2974,14.2822
1778683091.805685,514097,-0.5112,-0.3903,0.507,48.1567,39.2456,13.7939
1778683091.807492,514098,-0.5203,-0.3888,0.5126,48.645,36.499,13.3057
1778683091.814178,514099,-0.5286,-0.381,0.5163,48.9502,33.02,12.8174
1778683091.816340,514100,-0.531,-0.3803,0.5207,48.1567,29.2358,12.207
1778683091.823538,514101,-0.5237,-0.3766,0.5251,48.8892,25.8789,11.4746
1778683091.826511,514102,-0.5144,-0.3734,0.5229,48.0957,22.0337,10.7422
1778683091.832138,514103,-0.5049,-0.3693,0.5239,47.5464,18.6768,9.8877
1778683091.835237,514104,-0.4837,-0.3686,0.5214,47.6074,16.6016,9.1553
1778683091.836860,514105,-0.4668,-0.3664,0.5263,46.9971,15.4419,8.3008
1778683091.840657,514106,-0.4575,-0.3608,0.531,46.875,15.625,7.6904
1778683091.845832,514107,-0.4429,-0.3612,0.5407,47.0581,16.1743,7.1411
1778683091.848013,514108,-0.4348,-0.3608,0.5456,46.5698,16.9678,6.5918
1778683091.878664,514109,-0.4236,-0.3546,0.55,46.1426,19.104,6.1035
1778683091.878664,514110,-0.4212,-0.3529,0.5556,47.6685,21.4844,5.5542
1778683091.878664,514111,-0.4158,-0.3512,0.5642,45.8374,24.7192,4.8218
1778683091.878664,514112,-0.4185,-0.3485,0.5661,46.1426,27.771,4.2114
1778683091.878664,514113,-0.4199,-0.3429,0.5678,45.5933,31.6162,3.6621
1778683091.878664,514114,-0.4287,-0.3363,0.5681,45.166,35.7056,3.1738
1778683091.883766,514115,-0.438,-0.3358,0.561,45.2881,40.1001,3.1128
1778683091.884610,514116,-0.4466,-0.3312,0.56,43.335,44.5557,2.9907
1778683091.886822,514117,-0.4719,-0.3297,0.5522,42.1753,48.3398,2.7466
1778683091.889416,514118,-0.4895,-0.328,0.5449,41.5039,51.5747,2.5635
1778683091.895193,514119,-0.5142,-0.3271,0.5346,40.8325,53.5889,2.5024
1778683091.897886,514120,-0.5413,-0.3263,0.5354,40.7104,55.4199,2.4414
1778683091.897886,514121,-0.5728,-0.3278,0.5415,39.4897,56.0913,2.5024
1778683091.907010,514122,-0.5908,-0.3315,0.5451,38.5132,55.2979,2.5024
1778683091.907010,514123,-0.6091,-0.3332,0.5473,37.4146,53.894,2.3804
1778683091.913196,514124,-0.6272,-0.3346,0.5485,37.6587,51.4526,2.4414
1778683091.916290,514125,-0.6421,-0.3354,0.5563,37.1704,48.7671,2.7466
1778683091.923591,514126,-0.647,-0.3361,0.5644,36.5601,45.5933,3.1128
1778683091.929997,514127,-0.6465,-0.3422,0.5778,36.3159,42.5415,3.3569
1778683091.929997,514128,-0.6323,-0.3439,0.6079,37.1704,36.8652,4.2114
1778683091.929997,514129,-0.6221,-0.3439,0.6301,37.5977,34.6069,4.6387
1778683091.941097,514130,-0.617,-0.341,0.6447,37.8418,33.3862,5.127
1778683091.944876,514131,-0.6099,-0.3368,0.6574,37.6587,32.3486,5.6152
1778683091.948511,514132,-0.6065,-0.3329,0.6704,37.0483,31.6162,6.1646
1778683091.948511,514133,-0.6091,-0.3324,0.6813,36.6821,31.0669,6.7139
1778683091.975801,514134,-0.6111,-0.329,0.687,37.1094,31.1279,7.4463
1778683091.975801,514135,-0.6133,-0.3312,0.6906,35.8887,31.0669,7.9956
1778683091.975801,514136,-0.617,-0.3319,0.6926,35.2783,31.0059,8.606
1778683091.975801,514137,-0.625,-0.3305,0.6931,34.9121,30.9448,9.0332
1778683091.980496,514138,-0.6255,-0.3322,0.7006,34.3628,30.7617,9.7046
1778683091.980496,514139,-0.6275,-0.3366,0.7026,34.79,30.8228,10.437
1778683091.980496,514140,-0.6358,-0.3383,0.7043,34.4238,31.7383,11.2305
1778683091.980496,514141,-0.6404,-0.3402,0.7048,33.6914,32.7148,12.085
1778683091.989185,514142,-0.645,-0.3415,0.7094,33.5693,33.2031,12.9395
1778683091.999558,514143,-0.658,-0.3437,0.7126,33.6304,33.9966,13.7329
1778683091.999558,514144,-0.6738,-0.3483,0.7138,33.6304,34.4238,14.4653
1778683092.001710,514145,-0.6895,-0.352,0.7146,34.1187,35.3394,15.2588
1778683092.006258,514146,-0.7022,-0.3551,0.715,33.6304,35.2173,15.9912
1778683092.008074,514147,-0.7117,-0.3546,0.7121,33.02,34.79,16.7236
1778683092.013332,514148,-0.7151,-0.3549,0.7114,33.9966,34.3628,17.334
1778683092.015562,514149,-0.7127,-0.3532,0.7111,34.9731,33.2642,17.9443
1778683092.021374,514150,-0.7063,-0.3507,0.7141,35.4004,32.0435,18.5547
1778683092.023993,514151,-0.6997,-0.3444,0.715,35.5835,31.0059,19.104
1778683092.023993,514152,-0.6919,-0.3368,0.7192,36.8652,30.1514,19.8364
1778683092.035908,514153,-0.6895,-0.3363,0.7209,36.6211,29.2969,20.5078
1778683092.038918,514154,-0.679,-0.3319,0.7202,36.499,28.6255,21.1182
1778683092.040978,514155,-0.677,-0.328,0.7155,36.0718,28.1372,21.7896
1778683092.048603,514156,-0.6699,-0.3271,0.7172,36.438,27.71,22.4609
1778683092.049678,514157,-0.6682,-0.3307,0.7204,35.5225,27.5269,23.0103
1778683092.050663,514158,-0.6668,-0.3361,0.727,34.9121,27.0386,23.6816
1778683092.073797,514159,-0.677,-0.3393,0.7314,36.377,26.8555,24.4141
1778683092.073797,514160,-0.6809,-0.3432,0.7404,36.6211,26.7334,25.1465
1778683092.076125,514161,-0.6856,-0.3417,0.7417,36.9873,26.7944,26.062
1778683092.076125,514162,-0.6931,-0.3388,0.7453,38.208,26.4282,27.0386
1778683092.079770,514163,-0.7051,-0.3422,0.7514,38.6963,26.5503,27.9541
1778683092.081842,514164,-0.7105,-0.3385,0.7536,38.8184,27.1606,28.9917
1778683092.096560,514165,-0.7232,-0.3356,0.7602,39.978,27.8931,30.0903
1778683092.104935,514166,-0.7354,-0.3305,0.7639,40.3442,28.1982,31.189
1778683092.104935,514167,-0.7454,-0.3288,0.7666,39.6729,28.6865,32.3486
1778683092.104935,514168,-0.7603,-0.3244,0.7683,39.6118,28.5034,33.3862
1778683092.104935,514169,-0.7695,-0.3222,0.768,40.6494,28.5645,34.4238
1778683092.104935,514170,-0.7769,-0.321,0.767,40.7715,27.9541,35.2783
1778683092.106931,514171,-0.7815,-0.3249,0.7739,41.8091,26.2451,35.7666
1778683092.110482,514172,-0.793,-0.3273,0.7753,41.4429,24.9023,36.3159
1778683092.114638,514173,-0.8023,-0.3236,0.7824,42.0532,22.522,36.8042
1778683092.121215,514174,-0.8157,-0.3297,0.791,41.9312,20.6909,37.2925
1778683092.124359,514175,-0.8242,-0.3261,0.7998,41.8091,18.1274,37.6587
1778683092.135654,514176,-0.843,-0.3297,0.8164,42.4194,15.8691,38.0859
1778683092.135654,514177,-0.8557,-0.3339,0.8356,42.3584,13.7329,38.4521
1778683092.136174,514178,-0.8738,-0.3395,0.8564,42.0532,11.7188,39.0625
1778683092.138324,514179,-0.9004,-0.3461,0.8764,42.2974,9.2773,39.7949
1778683092.141443,514180,-0.9285,-0.3495,0.8959,41.1987,8.606,40.5884
1778683092.141443,514181,-0.9517,-0.3566,0.9143,40.5884,9.2163,41.687
1778683092.141443,514182,-0.9688,-0.3661,0.9272,40.2832,9.6436,42.7246
1778683092.155692,514183,-0.9824,-0.3703,0.9338,39.7339,10.6201,43.7012
1778683092.157374,514184,-0.9995,-0.3756,0.9499,40.4663,11.6577,44.3726
1778683092.157374,514185,-1.0171,-0.3739,0.9665,40.7104,13.3057,45.2271
1778683092.157374,514186,-1.0484,-0.3734,0.9875,39.6118,15.3809,45.9595
1778683092.171699,514187,-1.0877,-0.3686,1.0156,38.8184,17.0288,47.0581
1778683092.182328,514188,-1.1372,-0.3647,1.0429,38.6353,18.4326,48.584
1778683092.182328,514189,-1.1861,-0.3622,1.0654,38.269,18.6157,50.1709
1778683092.183359,514190,-1.2329,-0.3581,1.0886,36.438,18.3716,51.7578
1778683092.186743,514191,-1.2752,-0.3605,1.1149,34.668,17.5171,53.4668
1778683092.190800,514192,-1.3096,-0.3642,1.1386,32.2876,15.4419,55.1147
1778683092.190800,514193,-1.3384,-0.3769,1.1582,31.1279,12.5122,57.1899
1778683092.190800,514194,-1.3579,-0.3817,1.1701,30.5786,9.7656,59.4482
1778683092.202506,514195,-1.3782,-0.3908,1.1875,29.1748,6.897,62.561
1778683092.205504,514196,-1.3963,-0.4027,1.207,28.8086,3.0518,66.1621
1778683092.207935,514197,-1.4099,-0.4132,1.2192,29.541,-1.2817,70.6177
1778683092.207935,514198,-1.4124,-0.4208,1.2268,31.189,-4.4556,75.3174
1778683092.216482,514199,-1.418,-0.424,1.2277,33.5693,-7.5073,80.6885
1778683092.222669,514200,-1.4148,-0.4274,1.2253,37.0483,-9.9487,86.3647
1778683092.224668,514201,-1.4072,-0.4159,1.2209,39.6118,-12.146,92.7734
1778683092.233594,514202,-1.396,-0.4064,1.2092,42.9688,-13.916,99.5483
1778683092.233594,514203,-1.388,-0.3908,1.1911,47.0581,-15.4419,106.8726
1778683092.239586,514204,-1.3753,-0.3725,1.1794,50.2319,-16.6016,114.563
1778683092.240926,514205,-1.3689,-0.349,1.1672,52.6123,-17.2119,122.6807
1778683092.240926,514206,-1.3635,-0.3258,1.1513,54.9316,-17.2729,130.9814
1778683092.252816,514207,-1.3635,-0.3044,1.1381,56.5796,-17.1509,139.4043
1778683092.254682,514208,-1.3716,-0.276,1.1269,57.8613,-17.0288,147.644
1778683092.258201,514209,-1.3936,-0.2558,1.1293,58.7769,-16.9067,154.9683
1778683092.258201,514210,-1.4192,-0.2365,1.1335,58.5938,-17.5171,161.438
1778683092.275481,514211,-1.4483,-0.2184,1.1438,59.6313,-18.7378,167.8467
1778683092.275481,514212,-1.4763,-0.203,1.153,59.3872,-20.0806,173.2178
1778683092.280592,514213,-1.4895,-0.1906,1.1557,58.0444,-22.3999,178.2227
1778683092.280592,514214,-1.5032,-0.1825,1.1672,56.2134,-25.2075,183.1665
1778683092.280592,514215,-1.511,-0.1842,1.1606,54.6265,-27.771,188.1104
1778683092.280592,514216,-1.5164,-0.1869,1.1442,53.4058,-30.7617,192.9932
1778683092.289196,514217,-1.5274,-0.1938,1.1355,52.5513,-33.0811,197.6318
1778683092.292399,514218,-1.532,-0.2082,1.1433,50.5981,-35.8887,202.4536
1778683092.294473,514219,-1.5261,-0.2228,1.1411,50.8423,-37.9028,207.8857
1778683092.303118,514220,-1.5083,-0.2387,1.1308,50.7202,-38.7573,213.0737
1778683092.305123,514221,-1.4873,-0.2553,1.1084,50.9644,-38.3301,218.4448
1778683092.307877,514222,-1.471,-0.2746,1.0739,49.6216,-37.5366,223.1445
1778683092.307877,514223,-1.4434,-0.3097,1.0266,52.9175,-36.499,227.7832
1778683092.322388,514224,-1.4141,-0.3378,0.9648,54.6265,-36.1328,231.2622
1778683092.322388,514225,-1.3711,-0.3283,0.9025,60.791,-35.4614,233.5815
1778683092.324356,514226,-1.3201,-0.2524,0.8627,66.8335,-35.9497,236.4502
1778683092.324356,514227,-1.2764,-0.2033,0.8156,68.5425,-35.5835,238.4644
1778683092.334602,514228,-1.2471,-0.1703,0.7961,69.9463,-35.4614,240.7837
1778683092.337635,514229,-1.2317,-0.1386,0.7727,67.688,-35.4614,243.5913
1778683092.340581,514230,-1.2049,-0.1142,0.7319,63.5986,-34.1187,246.3989
1778683092.340581,514231,-1.1863,-0.0973,0.7084,59.9365,-34.1797,250
1778683092.354960,514232,-1.1546,-0.0912,0.6977,55.1147,-35.2783,252.3193
1778683092.357190,514233,-1.1121,-0.0961,0.6945,50.8423,-36.2549,254.3335
1778683092.358869,514234,-1.0789,-0.109,0.7097,48.1567,-37.5366,255.6763
1778683092.361706,514235,-1.0337,-0.12,0.705,46.2646,-36.7432,256.2866
1778683092.373683,514236,-1.001,-0.1225,0.6865,43.7012,-36.2549,257.5684
1778683092.385008,514237,-0.9671,-0.1212,0.6899,42.7246,-35.2783,259.8267
1778683092.385008,514238,-0.9531,-0.1227,0.694,40.7715,-34.9121,262.3291
1778683092.385008,514239,-0.927,-0.1239,0.6987,40.5884,-32.7759,264.2212
1778683092.385008,514240,-0.8877,-0.1305,0.6892,38.8794,-31.311,265.2588
1778683092.390059,514241,-0.8501,-0.1313,0.6701,38.8794,-31.25,266.1743
1778683092.391247,514242,-0.8198,-0.1274,0.6503,37.1704,-31.4331,266.9067
1778683092.391247,514243,-0.7869,-0.1266,0.6318,36.3159,-31.25,266.7847
1778683092.396686,514244,-0.7461,-0.1176,0.6096,34.4238,-30.8838,266.2964
1778683092.399948,514245,-0.7073,-0.1186,0.5942,33.4473,-31.4331,265.2588
1778683092.405031,514246,-0.6826,-0.1088,0.5756,33.8135,-32.1655,264.2822
1778683092.408123,514247,-0.6553,-0.099,0.5563,34.1187,-33.9966,263.1226
1778683092.413589,514248,-0.6211,-0.0863,0.5351,34.0576,-35.4004,261.5356
1778683092.413589,514249,-0.5852,-0.0795,0.5095,35.4004,-37.8418,259.5215
1778683092.422600,514250,-0.5408,-0.0717,0.4887,34.8511,-40.3442,257.0801
1778683092.426841,514251,-0.5005,-0.0636,0.4851,35.5225,-42.4805,254.4556
1778683092.429846,514252,-0.4739,-0.0595,0.4824,36.499,-44.0063,251.8311
1778683092.436084,514253,-0.4556,-0.048,0.4826,36.5601,-44.8608,249.3896
1778683092.438223,514254,-0.4317,-0.047,0.4729,36.3159,-45.5322,247.2534
1778683092.440881,514255,-0.4055,-0.0441,0.4665,36.1938,-47.0581,244.9341
1778683092.448372,514256,-0.3843,-0.0412,0.4531,35.4614,-48.2788,242.3096
1778683092.450979,514257,-0.3631,-0.0461,0.4436,33.9966,-48.2178,239.2578
1778683092.453086,514258,-0.3355,-0.0485,0.4326,33.7524,-47.7295,235.9619
1778683092.457289,514259,-0.3069,-0.0465,0.4238,33.6304,-47.1802,232.5439
1778683092.461581,514260,-0.282,-0.0365,0.4138,35.1562,-46.0815,228.5767
1778683092.464841,514261,-0.249,-0.0204,0.3999,36.9873,-44.3726,224.4263
1778683092.465211,514262,-0.2241,0.002,0.3911,38.208,-42.4194,220.0317
1778683092.492392,514263,-0.1997,0.0277,0.3911,38.8184,-40.1611,214.9658
1778683092.496174,514264,-0.1868,0.0536,0.3994,37.9028,-38.0249,209.7778
1778683092.496598,514265,-0.1841,0.0731,0.4038,35.8276,-35.2783,205.1392
1778683092.496598,514266,-0.1978,0.0807,0.4135,33.2031,-33.2031,201.2939
1778683092.496598,514267,-0.207,0.0811,0.4243,28.5034,-31.25,197.6929
1778683092.496598,514268,-0.211,0.0663,0.4255,25.3906,-31.6162,193.7256
1778683092.496598,514269,-0.2044,0.0496,0.4169,21.7896,-33.0811,188.9648
1778683092.501566,514270,-0.1851,0.0182,0.4055,18.0664,-36.6821,183.8379
1778683092.507335,514271,-0.1736,-0.0111,0.4023,16.4185,-40.1001,178.5889
1778683092.507335,514272,-0.1572,-0.0351,0.403,15.686,-43.335,173.5229
1778683092.507335,514273,-0.1409,-0.0531,0.4035,16.5405,-46.6309,168.5791
1778683092.507335,514274,-0.1118,-0.0587,0.4016,17.8833,-48.9502,163.8794
1778683092.519373,514275,-0.0811,-0.0561,0.4069,20.813,-51.2695,158.9966
1778683092.524439,514276,-0.0491,-0.0404,0.4082,23.1934,-53.4668,153.8696
1778683092.524439,514277,-0.0266,-0.0212,0.4147,25.6958,-54.9927,148.6816
1778683092.524439,514278,-0.0122,0.002,0.4309,27.2217,-55.6641,143.4937
1778683092.539279,514279,-0.0015,0.0247,0.4379,27.5269,-55.2979,138.4277
1778683092.540260,514280,0.0097,0.0384,0.444,25.2686,-54.6875,133.3618
1778683092.547967,514281,0.0244,0.0453,0.4462,23.8647,-53.9551,128.418
1778683092.547967,514282,0.0312,0.0509,0.4438,21.4844,-52.4292,117.7368
1778683092.557790,514283,0.0166,0.0606,0.4465,21.1182,-51.0254,112.6709
1778683092.561452,514284,-0.0069,0.0667,0.4475,21.9116,-49.1333,108.0322
1778683092.563673,514285,-0.0191,0.076,0.4453,22.9492,-47.9736,103.1494
1778683092.565825,514286,-0.0198,0.0833,0.4394,22.4609,-46.814,97.7173
1778683092.579368,514287,-0.0037,0.087,0.4282,22.9492,-45.7764,92.3462
1778683092.581508,514288,0.0095,0.0948,0.4274,23.3154,-44.0674,86.853
1778683092.581508,514289,0.0166,0.1082,0.4274,23.6816,-42.1143,81.4819
1778683092.581508,514290,0.011,0.1229,0.4345,24.7803,-40.9546,76.5991
1778683092.589197,514291,-0.0047,0.1383,0.4475,25.8179,-40.0391,71.7773
1778683092.595520,514292,-0.0181,0.1556,0.4589,26.8555,-40.7104,66.8335
1778683092.597886,514293,-0.0335,0.1751,0.4687,26.9775,-42.2363,61.6455
1778683092.599905,514294,-0.0322,0.1927,0.4768,27.4048,-44.1895,56.4575
1778683092.602923,514295,-0.0237,0.2098,0.486,26.6724,-47.0581,51.0254
1778683092.607940,514296,-0.0237,0.2254,0.4921,25.8789,-49.3774,45.7153
1778683092.614135,514297,-0.0259,0.2367,0.5034,25.2686,-51.9409,40.5884
1778683092.616156,514298,-0.0264,0.2484,0.5105,24.9634,-53.4058,35.9497
1778683092.616156,514299,-0.0188,0.2535,0.5227,24.6582,-54.9316,31.3721
1778683092.624935,514300,-0.0034,0.2599,0.5244,23.5596,-57.1899,26.9165
1778683092.628479,514301,0.0166,0.2618,0.5195,22.3999,-59.5093,22.583
1778683092.631790,514302,0.0395,0.2704,0.5192,22.8882,-61.0352,18.4326
1778683092.632536,514303,0.0615,0.2843,0.5212,23.3154,-62.1338,14.5874
1778683092.643047,514304,0.0871,0.3009,0.5266,23.8037,-62.6831,10.6201
1778683092.649150,514305,0.1045,0.3226,0.5376,23.8037,-62.1338,6.7139
1778683092.652680,514306,0.1347,0.3634,0.5632,24.1699,-59.1431,-0.4272
1778683092.655765,514307,0.154,0.3863,0.5705,23.5596,-56.6406,-3.6011
1778683092.664565,514308,0.1667,0.4095,0.5791,22.0337,-54.0161,-6.7139
1778683092.664565,514309,0.1833,0.4339,0.5915,20.752,-51.2695,-9.7046
1778683092.671542,514310,0.1885,0.4579,0.5986,19.6533,-48.7671,-12.6953
1778683092.673543,514311,0.1858,0.4732,0.6176,17.8223,-45.2271,-15.3809
1778683092.690492,514312,0.1804,0.4889,0.6335,16.7236,-41.0156,-17.7612
1778683092.690492,514313,0.1697,0.5069,0.6486,14.9536,-36.377,-19.7144
1778683092.690492,514314,0.1626,0.5177,0.6594,14.3433,-32.1655,-21.4844
1778683092.690492,514315,0.1567,0.5343,0.6733,12.5732,-28.5645,-23.2544
1778683092.690492,514316,0.1482,0.5514,0.6879,11.9019,-24.9023,-25.0854
1778683092.690492,514317,0.1409,0.5741,0.706,11.6577,-21.9116,-26.9775
1778683092.690492,514318,0.1411,0.6021,0.7221,11.6577,-18.9209,-29.0527
1778683092.690492,514319,0.1391,0.6248,0.7456,11.2305,-15.8081,-30.8838
1778683092.708715,514320,0.1343,0.6495,0.7668,10.1318,-12.8784,-32.8979
1778683092.708715,514321,0.1321,0.6649,0.7792,8.667,-9.2773,-34.729
1778683092.708715,514322,0.1321,0.681,0.7902,7.1411,-5.9204,-36.499
1778683092.708715,514323,0.136,0.683,0.7976,3.9673,-2.0142,-38.208
1778683092.723546,514324,0.1377,0.6827,0.8042,1.9531,1.6479,-39.856
1778683092.725969,514325,0.1423,0.6766,0.8098,0,4.7607,-41.748
1778683092.725969,514326,0.1369,0.6756,0.8117,-1.5869,8.1787,-43.5181
1778683092.725969,514327,0.1133,0.6746,0.8176,-2.0752,11.6577,-44.8608
1778683092.740690,514328,0.0906,0.6715,0.8249,-2.6855,14.5264,-45.9595
1778683092.740690,514329,0.0679,0.6644,0.8305,-2.9907,16.9067,-46.6919
1778683092.740690,514330,0.0493,0.658,0.8276,-3.9062,17.9443,-47.5464
1778683092.740690,514331,0.0344,0.6549,0.8264,-3.6621,18.0664,-48.0957
1778683092.758081,514332,0.02,0.6612,0.8308,-3.6621,18.1885,-48.584
1778683092.758081,514333,0.011,0.6695,0.8371,-3.1738,18.3105,-48.7671
1778683092.758081,514334,-0.0083,0.6756,0.8452,-3.9673,17.5781,-48.7671
1778683092.758081,514335,-0.0208,0.6888,0.852,-3.2959,16.9678,-48.645
1778683092.771532,514336,-0.0288,0.6956,0.862,-4.9438,15.4419,-48.2788
1778683092.792033,514337,-0.0427,0.6934,0.8772,-5.3711,13.4277,-47.8516
1778683092.792033,514338,-0.0545,0.6966,0.8833,-5.8594,10.9863,-47.3022
1778683092.792033,514339,-0.0728,0.6954,0.8901,-8.1787,8.9722,-46.7529
1778683092.792033,514340,-0.0823,0.6842,0.8959,-9.3994,6.2866,-46.2036
1778683092.792033,514341,-0.0916,0.6764,0.904,-9.8877,3.1128,-45.6543
1778683092.792033,514342,-0.0982,0.6656,0.9135,-9.2163,-0.061,-45.166
1778683092.792033,514343,-0.1057,0.6605,0.9284,-9.6436,-2.9297,-44.7998
1778683092.792033,514344,-0.1099,0.6529,0.9404,-10.3149,-5.8594,-44.1895
1778683092.808542,514345,-0.1116,0.6456,0.9475,-9.8267,-8.3618,-43.457
1778683092.808542,514346,-0.1131,0.6405,0.9558,-9.0942,-10.8032,-42.6025
1778683092.808542,514347,-0.1033,0.6397,0.9626,-7.3853,-12.8784,-42.0532
1778683092.808542,514348,-0.0925,0.6493,0.967,-6.1035,-14.6484,-41.9922
1778683092.823934,514349,-0.0845,0.6573,0.9711,-4.9438,-16.4185,-42.0532
1778683092.827564,514350,-0.0786,0.6688,0.9768,-3.7842,-16.6626,-42.2363
1778683092.827564,514351,-0.0706,0.6712,0.9782,-2.6855,-16.8457,-42.7246
1778683092.835746,514352,-0.065,0.6703,0.9809,-1.6479,-15.9912,-43.335
1778683092.847189,514353,-0.0506,0.6634,0.9746,-2.0752,-15.0757,-44.2505
1778683092.854920,514354,-0.0379,0.6424,0.9604,-2.5635,-14.2822,-45.2271
1778683092.854920,514355,-0.0286,0.6253,0.9492,-2.1973,-12.7563,-46.3257
1778683092.858524,514356,-0.0271,0.5999,0.9421,-1.4038,-11.2915,-47.4243
1778683092.860662,514357,-0.0318,0.5814,0.9389,-1.3428,-9.0942,-47.9736
1778683092.860662,514358,-0.0415,0.5631,0.9392,-0.6714,-7.6904,-48.2788
1778683092.863580,514359,-0.054,0.5484,0.9394,0.1221,-6.7139,-48.3398
1778683092.869004,514360,-0.0642,0.5431,0.9421,3.1128,-6.2256,-47.9126
1778683092.874617,514361,-0.0747,0.5433,0.9443,4.2725,-5.6763,-47.1802
1778683092.874617,514362,-0.085,0.5433,0.9475,5.3711,-5.4321,-46.3257
1778683092.874617,514363,-0.0982,0.5523,0.9511,5.3101,-5.6763,-45.2881
1778683092.874617,514364,-0.1116,0.5599,0.9523,6.3477,-6.2256,-44.0063
1778683092.874617,514365,-0.1233,0.5655,0.9541,5.5542,-7.2632,-42.5415
1778683092.892297,514366,-0.1294,0.5663,0.9567,5.0049,-9.2163,-41.1377
1778683092.896205,514367,-0.135,0.567,0.9526,3.6011,-11.2305,-39.6729
1778683092.898257,514368,-0.1355,0.5553,0.9501,3.479,-14.1602,-38.3911
1778683092.906096,514369,-0.1389,0.5423,0.9506,0.6104,-17.1509,-37.0483
1778683092.908016,514370,-0.1455,0.5186,0.9587,-0.2441,-19.6533,-35.5835
1778683092.909051,514371,-0.1494,0.4903,0.9663,-1.4648,-21.7896,-34.0576
1778683092.909051,514372,-0.1487,0.461,0.9658,-2.0752,-23.9258,-32.6538
1778683092.909051,514373,-0.1382,0.4327,0.9675,-2.3804,-26.7334,-31.3721
1778683092.923212,514374,-0.1284,0.4127,0.9692,-2.0142,-29.4189,-30.2734
1778683092.926285,514375,-0.1131,0.3919,0.9704,-0.061,-31.7383,-29.4189
1778683092.931807,514376,-0.0999,0.3827,0.9738,0.3662,-33.3252,-28.8086
1778683092.937214,514377,-0.0945,0.3685,0.9819,1.2207,-34.1187,-28.1982
1778683092.940186,514378,-0.0906,0.3565,0.9919,2.0142,-33.6304,-27.5269
1778683092.943520,514379,-0.0811,0.339,0.9941,3.2349,-32.3486,-26.8555
1778683092.947592,514380,-0.073,0.3272,0.9904,4.1504,-31.1279,-26.1841
1778683092.947592,514381,-0.0596,0.3238,0.9836,6.2256,-29.48,-25.6348
1778683092.955743,514382,-0.0488,0.3219,0.9772,8.1177,-28.0151,-25.3296
1778683092.959068,514383,-0.0418,0.3267,0.977,9.7656,-25.6348,-25.1465
1778683092.964140,514384,-0.0383,0.3348,0.9755,12.5122,-23.0103,-25.0854
1778683092.966888,514385,-0.0354,0.3426,0.9719,15.3198,-20.1416,-25.0854
1778683092.973634,514386,-0.0235,0.3538,0.9643,16.1133,-17.5171,-25.2686
1778683092.974821,514387,-0.0166,0.3661,0.9563,18.4937,-14.5264,-25.3906
1778683092.981894,514388,-0.0076,0.377,0.9506,19.104,-11.4136,-25.9399
1778683092.990444,514389,-0.0012,0.3875,0.9426,20.3857,-8.0566,-26.4893
1778683092.990444,514390,0.008,0.3993,0.9311,20.0806,-5.188,-27.3438
1778683092.990444,514391,0.0075,0.4056,0.9235,21.2402,-2.0142,-28.1372
1778683092.990444,514392,0.0022,0.4054,0.9177,20.752,1.3428,-29.2358
1778683093.005987,514393,-0.0112,0.4046,0.9165,20.4468,4.5776,-30.1514
1778683093.005987,514394,-0.0261,0.3988,0.9082,20.6909,8.0566,-31.0669
1778683093.008533,514395,-0.0435,0.3932,0.8994,20.2026,10.8032,-32.0435
1778683093.012766,514396,-0.054,0.3875,0.892,20.2026,13.0615,-32.8979
1778683093.013692,514397,-0.0694,0.3834,0.8874,20.6909,14.5264,-33.8745
1778683093.013692,514398,-0.0882,0.38,0.8869,19.8364,15.7471,-34.668
1778683093.022576,514399,-0.1155,0.3817,0.895,20.752,16.3574,-35.3394
1778683093.027033,514400,-0.1463,0.3844,0.9028,21.6064,16.8457,-35.5225
1778683093.027935,514401,-0.1748,0.389,0.9008,22.583,16.2354,-35.5225
1778683093.036118,514402,-0.197,0.3892,0.8972,21.9116,14.5264,-35.3394
1778683093.038505,514403,-0.2114,0.3961,0.8938,21.5454,12.5122,-35.2783
1778683093.044656,514404,-0.2263,0.3973,0.8942,22.1558,9.7046,-35.4614
1778683093.047986,514405,-0.2373,0.3983,0.8974,21.1182,7.0801,-35.3394
1778683093.047986,514406,-0.2444,0.3985,0.8986,21.1792,4.7607,-35.0952
1778683093.056912,514407,-0.2488,0.4005,0.8999,20.874,2.3804,-34.668
1778683093.057748,514408,-0.2488,0.4046,0.9016,20.6909,-0.1221,-34.1187
1778683093.062900,514409,-0.2446,0.4127,0.8967,22.0337,-3.0518,-33.6304
1778683093.067986,514410,-0.2368,0.42,0.894,21.3623,-5.7373,-33.2642
1778683093.067986,514411,-0.2268,0.43,0.8964,20.2637,-9.0332,-32.8369
1778683093.075482,514412,-0.2146,0.4408,0.9006,20.1416,-12.085,-32.3486
1778683093.078687,514413,-0.198,0.4459,0.9025,20.0806,-15.1978,-32.1045
1778683093.080643,514414,-0.1812,0.4498,0.8991,18.5547,-17.5781,-31.4941
1778683093.097114,514415,-0.1536,0.4532,0.8935,17.0898,-20.1416,-30.8838
1778683093.097114,514416,-0.1272,0.4554,0.8898,15.0146,-22.3389,-30.5786
1778683093.097114,514417,-0.0979,0.4537,0.8916,14.1602,-23.8037,-30.1514
1778683093.108014,514418,-0.0672,0.4554,0.8852,12.207,-24.4141,-29.7852
1778683093.108667,514419,-0.044,0.4471,0.8852,10.8032,-24.7803,-29.541
1778683093.108727,514420,-0.0188,0.4474,0.8828,10.1929,-24.4141,-29.2358
1778683093.109847,514421,0.0137,0.4439,0.8784,9.7046,-23.3765,-29.1138
1778683093.109847,514422,0.0359,0.4486,0.8767,8.728,-21.2402,-28.8696
1778683093.118985,514423,0.0586,0.4481,0.8723,7.8735,-18.7378,-28.5645
1778683093.122460,514424,0.073,0.4464,0.873,6.958,-15.8691,-28.3203
1778683093.124268,514425,0.0891,0.4513,0.872,6.0425,-12.085,-28.1982
1778683093.124268,514426,0.1001,0.4469,0.8735,5.7983,-8.1177,-28.1372
1778683093.136634,514427,0.1106,0.4413,0.8757,4.0894,-4.2725,-28.4424
1778683093.138638,514428,0.1245,0.429,0.8786,4.0894,0,-28.8086
1778683093.141146,514429,0.1318,0.4217,0.8798,1.9531,4.4556,-29.4189
1778683093.141146,514430,0.134,0.4085,0.8828,1.4648,9.2163,-29.8462
1778683093.154064,514431,0.135,0.4022,0.8815,0.1831,13.9771,-30.3345
1778683093.157465,514432,0.1264,0.3927,0.8801,0.6104,18.2495,-30.5786
1778683093.157465,514433,0.1177,0.3914,0.8791,0.9766,22.583,-30.9448
1778683093.166682,514434,0.1086,0.3927,0.8813,0.9766,26.4893,-31.4331
1778683093.169304,514435,0.0991,0.3888,0.8894,1.2207,30.1514,-32.1045
1778683093.172610,514436,0.0874,0.3885,0.8916,1.8311,33.5083,-32.6538
1778683093.174427,514437,0.0757,0.3851,0.8984,2.7466,37.1094,-33.2642
1778683093.178833,514438,0.0608,0.3766,0.9089,2.0142,39.0015,-33.9355
1778683093.207960,514439,0.0464,0.3675,0.9091,1.3428,41.3818,-34.4849
1778683093.207960,514440,0.0283,0.3602,0.9128,1.0376,42.9077,-35.0952
1778683093.208969,514441,0.0083,0.3565,0.9113,0.9766,44.0674,-35.5225
1778683093.209090,514442,-0.0017,0.3524,0.9145,1.77,44.3115,-36.2549
1778683093.209090,514443,-0.021,0.359,0.9206,2.3804,43.8843,-36.6821
1778683093.209090,514444,-0.0327,0.3719,0.9233,3.418,43.0908,-37.2314
1778683093.209090,514445,-0.0435,0.3834,0.925,4.2114,41.3208,-37.5977
1778683093.209090,514446,-0.0493,0.3919,0.9318,4.7607,40.1611,-38.208
1778683093.209090,514447,-0.0547,0.3941,0.9343,4.1504,38.3301,-38.7573
1778683093.218903,514448,-0.0559,0.39,0.9379,2.8076,36.499,-39.6118
1778683093.221937,514449,-0.055,0.3817,0.9326,1.709,34.729,-40.3442
1778683093.227640,514450,-0.0554,0.3692,0.9267,1.77,32.5928,-41.1377
1778683093.231658,514451,-0.0564,0.3565,0.9204,1.77,30.2734,-42.1753
1778683093.233663,514452,-0.055,0.3409,0.9123,1.8921,28.6255,-43.0908
1778683093.238231,514453,-0.0554,0.3307,0.9023,1.2207,26.001,-44.1284
1778683093.241545,514454,-0.0493,0.3182,0.8911,1.4648,24.231,-44.9829
1778683093.246870,514455,-0.0498,0.3053,0.8813,3.0518,21.9727,-46.0205
1778683093.249867,514456,-0.0476,0.2931,0.8693,3.418,19.8364,-46.9971
1778683093.255916,514457,-0.042,0.2857,0.8613,3.9673,17.7002,-48.2788
1778683093.259733,514458,-0.0288,0.2747,0.8501,4.5166,15.9912,-49.9268
1778683093.263784,514459,-0.0144,0.264,0.8381,5.8594,15.0757,-51.7578
1778683093.263784,514460,0.0014,0.2538,0.832,6.958,14.2822,-53.772
1778683093.271590,514461,0.0139,0.2501,0.8254,8.7891,14.4043,-55.6641
1778683093.274249,514462,0.0271,0.2457,0.822,9.2163,15.1367,-57.373
1778683093.278015,514463,0.0368,0.2459,0.8161,10.7422,16.4795,-59.2651
1778683093.282015,514464,0.0417,0.2559,0.8154,13.5498,18.0664,-61.2183
1778683093.283057,514465,0.0459,0.2664,0.8081,14.8926,19.5923,-63.4155
1778683093.290572,514466,0.0513,0.2747,0.8032,16.2354,21.1792,-65.6128
1778683093.309595,514467,0.0561,0.2826,0.8034,17.1509,22.583,-68.0542
1778683093.309595,514468,0.0583,0.2845,0.8044,17.5171,23.8037,-70.6787
1778683093.309595,514469,0.0661,0.2823,0.7966,16.9067,25.2686,-73.3643
1778683093.309595,514470,0.0696,0.2735,0.7912,16.9067,26.7334,-76.1108
1778683093.315626,514471,0.0796,0.2603,0.7861,15.9912,27.8931,-78.9795
1778683093.317840,514472,0.0937,0.2462,0.7783,15.0146,29.541,-81.9092
1778683093.318839,514473,0.1057,0.2257,0.7709,15.3809,31.4331,-85.083
1778683093.322839,514474,0.1228,0.212,0.7607,15.0757,33.8135,-88.3179
1778683093.327605,514475,0.1301,0.1944,0.7522,15.5029,35.9497,-91.6138
1778683093.330605,514476,0.1269,0.1739,0.7431,15.9912,38.3911,-95.0317
1778683093.332638,514477,0.1313,0.1588,0.7287,16.1743,41.1987,-98.2056
1778683093.338284,514478,0.1284,0.1405,0.7165,15.9302,44.2505,-101.5015
1778683093.341170,514479,0.1308,0.1222,0.7063,15.686,46.5698,-104.9805
1778683093.346599,514480,0.1296,0.1046,0.6953,16.1133,49.8047,-108.7646
1778683093.350666,514481,0.1333,0.0907,0.6813,16.6016,52.4292,-112.3047
1778683093.356363,514482,0.1286,0.0804,0.675,18.0054,54.8706,-115.9058
1778683093.377006,514483,0.1223,0.076,0.6706,18.5547,57.251,-119.5679
1778683093.389288,514484,0.1142,0.0792,0.6689,19.8364,59.6924,-123.1689
1778683093.389288,514486,0.1055,0.0965,0.6655,22.7661,63.5986,-130.7983
1778683093.389288,514487,0.1033,0.1051,0.6613,21.7285,65.2466,-135.1318
1778683093.389288,514488,0.0976,0.1053,0.6574,21.9116,67.3828,-139.3433
1778683093.389288,514489,0.0932,0.0995,0.6506,20.6909,68.7866,-143.6768
1778683093.391288,514490,0.0947,0.0887,0.6391,19.2871,70.4346,-148.0103
1778683093.391478,514491,0.0896,0.0692,0.6254,17.334,71.8994,-152.4658
1778683093.394756,514492,0.0888,0.0494,0.6154,16.1133,73.0591,-157.1045
1778683093.398427,514493,0.0779,0.0313,0.6076,16.3574,74.585,-161.6821
1778683093.406709,514494,0.0488,0.0045,0.6057,15.0146,77.4536,-165.7715
1778683093.409659,514495,0.0141,-0.0204,0.6008,16.0522,80.9326,-169.5557
1778683093.409659,514496,-0.0261,-0.0368,0.5988,15.9912,83.9233,-172.9736
1778683093.414299,514497,-0.0637,-0.048,0.5881,17.395,85.8765,-176.2085
1778683093.418945,514498,-0.1055,-0.0487,0.5861,20.4468,86.853,-179.4434
1778683093.426048,514499,-0.1494,-0.0461,0.5864,23.9258,86.0596,-182.8003
1778683093.428880,514500,-0.1887,-0.0341,0.5808,25.4517,84.1675,-186.3403
1778683093.431124,514501,-0.2278,-0.0212,0.5864,27.0996,81.1768,-189.4531
1778683093.436618,514502,-0.252,-0.0119,0.5969,28.8086,77.6367,-192.749
1778683093.438054,514503,-0.2752,0.003,0.6066,28.7476,73.1201,-195.9839
1778683093.441289,514504,-0.2879,0.0191,0.6162,28.7476,67.3218,-199.4629
1778683093.441289,514505,-0.2974,0.0399,0.6223,29.7241,61.4624,-202.6367
1778683093.441289,514506,-0.2991,0.0526,0.6247,28.7476,55.0537,-205.8716
1778683093.455760,514507,-0.3003,0.0706,0.6252,27.0386,48.1567,-209.1675
1778683093.461774,514508,-0.2949,0.0763,0.6259,25.3296,42.1753,-212.5854
1778683093.464756,514509,-0.2771,0.0758,0.6235,22.3389,37.0483,-216.2476
1778683093.470339,514510,-0.2542,0.0684,0.6252,19.2871,32.3486,-220.3369
1778683093.473346,514511,-0.2268,0.0496,0.6225,16.7847,27.8931,-224.2432
1778683093.475284,514512,-0.207,0.0365,0.6198,14.5874,24.8413,-227.8442
1778683093.475284,514513,-0.1912,0.0226,0.6145,12.2681,23.4985,-231.2622
1778683093.475284,514514,-0.1946,0.0013,0.6103,10.0098,23.3765,-234.7412
1778683093.493979,514515,-0.2193,-0.0199,0.6188,8.667,24.7192,-237.7319
1778683093.512498,514516,-0.2573,-0.0465,0.6281,5.5542,27.5269,-240.2344
1778683093.512498,514517,-0.2957,-0.0734,0.6362,5.0659,31.1279,-242.6147
1778683093.512498,514518,-0.3379,-0.0981,0.6447,4.6997,33.8745,-244.812
1778683093.513285,514519,-0.3782,-0.11,0.6486,6.958,34.729,-247.1313
1778683093.513330,514520,-0.4165,-0.112,0.6455,9.0332,35.1562,-249.5117
1778683093.513330,514521,-0.4519,-0.1076,0.6401,10.498,35.5835,-251.4648
1778683093.513330,514522,-0.4888,-0.0939,0.6362,11.2305,35.9497,-253.2959
1778683093.519621,514523,-0.5276,-0.0795,0.6413,11.1084,37.5366,-254.6997
1778683093.522509,514524,-0.5725,-0.0622,0.6447,10.1318,40.6494,-255.5542
1778683093.524817,514525,-0.6177,-0.0504,0.6479,7.6294,43.7622,-255.9204
1778683093.524817,514526,-0.6463,-0.0368,0.6457,6.7139,46.2036,-255.9814
1778683093.524817,514527,-0.6702,-0.0319,0.6445,5.9204,47.2412,-256.1035
1778683093.538295,514528,-0.6819,-0.0248,0.6401,4.0283,48.9502,-256.4697
1778683093.542007,514529,-0.688,-0.0131,0.6372,3.418,47.8516,-257.1411
1778683093.546488,514530,-0.6841,-0.0072,0.6328,0.5493,45.4712,-257.8735
1778683093.553374,514531,-0.6724,-0.0045,0.6259,-2.3804,40.5273,-258.606
1778683093.557031,514532,-0.6541,-0.0099,0.6262,-6.0425,35.8887,-259.7656
1778683093.565427,514533,-0.637,-0.0199,0.6264,-9.7656,30.9448,-261.2915
1778683093.574111,514534,-0.6216,-0.028,0.6198,-13.1836,25.6348,-262.6953
1778683093.574111,514535,-0.6165,-0.048,0.6069,-16.8457,21.6675,-263.3057
1778683093.574111,514536,-0.6199,-0.0732,0.602,-21.3013,18.1885,-263.1226
1778683093.579591,514537,-0.6306,-0.1039,0.6101,-25.3906,16.9067,-262.6953
1778683093.582193,514538,-0.6333,-0.1332,0.6174,-29.1138,15.3809,-262.8174
1778683093.585198,514539,-0.6375,-0.1564,0.6289,-31.5552,13.1226,-263.3057
1778683093.590955,514540,-0.6399,-0.173,0.6359,-32.959,10.6812,-263.6108
1778683093.590955,514541,-0.6494,-0.1798,0.6496,-32.6538,8.3008,-263.916
1778683093.598934,514542,-0.676,-0.1811,0.6665,-34.3018,7.1411,-263.6719
1778683093.612609,514543,-0.7117,-0.1669,0.6831,-32.4707,6.4697,-262.5732
1778683093.615036,514544,-0.7569,-0.1488,0.708,-34.3018,7.9956,-260.8643
1778683093.615036,514545,-0.7923,-0.1339,0.7285,-35.6445,10.437,-258.4229
1778683093.615036,514546,-0.825,-0.122,0.748,-37.1704,14.7095,-255.6152
1778683093.622779,514547,-0.8372,-0.1105,0.7658,-39.3677,19.5312,-252.8687
1778683093.626311,514548,-0.8538,-0.1046,0.7766,-41.5039,24.7192,-250.7324
1778683093.627307,514549,-0.8552,-0.1159,0.7839,-46.3867,28.0151,-249.5117
1778683093.628307,514550,-0.8682,-0.1212,0.7824,-51.5747,30.7007,-248.4131
1778683093.631354,514551,-0.8933,-0.14,0.7763,-56.3965,31.9824,-247.1313
1778683093.631354,514552,-0.927,-0.1703,0.7866,-62.3169,31.6162,-245.4224
1778683093.641361,514553,-0.9654,-0.2143,0.7988,-69.1528,29.9683,-243.2251
1778683093.641361,514554,-0.9981,-0.2697,0.8029,-75.0732,26.6113,-240.7837
1778683093.645722,514555,-1.0325,-0.3268,0.7954,-82.3975,21.6064,-237.793
1778683093.649761,514556,-1.0557,-0.3717,0.7802,-85.8154,15.1978,-234.7412
1778683093.657601,514557,-1.0491,-0.4164,0.7551,-88.3179,9.5215,-231.6284
1778683093.660177,514558,-1.0215,-0.4394,0.7522,-89.1724,3.54,-228.2715
1778683093.660177,514559,-0.9798,-0.4523,0.7539,-90.8813,-2.6855,-224.7314
1778683093.671687,514560,-0.93,-0.453,0.7536,-91.4307,-8.5449,-221.0693
1778683093.671687,514561,-0.8809,-0.4342,0.7751,-91.0645,-12.5732,-216.7969
1778683093.678721,514562,-0.8518,-0.4113,0.8188,-90.6982,-14.7705,-212.0361
1778683093.678721,514563,-0.8357,-0.3844,0.8662,-91.4917,-15.2588,-206.4209
1778683093.690062,514564,-0.8389,-0.3615,0.9169,-92.1631,-13.5498,-200.2563
1778683093.694438,514565,-0.8484,-0.3402,0.9709,-94.1772,-11.0474,-194.6411
1778683093.694438,514566,-0.8513,-0.3344,1.0188,-97.168,-8.4229,-189.5142
1778683093.694438,514567,-0.8604,-0.3412,1.0581,-98.7549,-7.4463,-185.1196
1778683093.721697,514568,-0.8638,-0.3625,1.1027,-102.2949,-7.1411,-181.3354
1778683093.721697,514569,-0.8779,-0.4003,1.1477,-103.9429,-7.6294,-177.9785
1778683093.721697,514570,-0.8819,-0.445,1.1738,-106.3232,-7.019,-174.4995
1778683093.721697,514571,-0.876,-0.5004,1.1958,-108.7646,-6.5308,-170.5933
1778683093.721697,514572,-0.8665,-0.5497,1.2072,-108.8257,-6.5918,-167.1753
1778683093.722698,514573,-0.8572,-0.5905,1.198,-107.605,-6.6528,-164.0625
1778683093.726429,514574,-0.8662,-0.6159,1.2001,-106.5063,-7.7515,-161.377
1778683093.727763,514575,-0.9043,-0.6291,1.2106,-103.6987,-10.5591,-158.1421
1778683093.729963,514576,-0.9597,-0.6391,1.2087,-100.8301,-14.6484,-154.1138
1778683093.730479,514577,-1.0227,-0.6427,1.2192,-98.938,-19.3481,-149.5972
1778683093.730479,514578,-1.0611,-0.6547,1.229,-96.3135,-26.3672,-145.2637
1778683093.741579,514579,-1.0757,-0.6608,1.2238,-93.3228,-34.3628,-141.2354
1778683093.746166,514580,-1.0593,-0.6674,1.227,-89.9048,-42.6025,-137.5732
1778683093.746166,514581,-1.0142,-0.6759,1.2355,-85.144,-49.6826,-134.0332
1778683093.754828,514582,-0.9492,-0.6757,1.2487,-81.665,-55.1758,-130.3711
1778683093.757674,514583,-0.876,-0.6764,1.2526,-76.355,-58.7158,-126.4648
1778683093.757674,514584,-0.8037,-0.6733,1.2458,-72.5098,-61.4014,-122.6196
1778683093.757674,514585,-0.7378,-0.6691,1.2482,-68.0542,-61.4014,-118.5303
1778683093.757674,514586,-0.6782,-0.6601,1.2595,-63.1104,-58.5938,-114.0747
1778683093.774753,514587,-0.6316,-0.6503,1.2697,-58.4717,-53.9551,-109.1919
1778683093.778367,514588,-0.5921,-0.6398,1.2768,-52.9785,-47.1802,-104.0649
1778683093.780500,514589,-0.5659,-0.621,1.2783,-48.0347,-38.6353,-98.877
1778683093.790889,514590,-0.5545,-0.6059,1.2773,-42.7246,-29.541,-93.811
1778683093.790889,514591,-0.562,-0.5912,1.267,-39.856,-20.5688,-88.9282
1778683093.790889,514592,-0.5774,-0.5837,1.2563,-35.8887,-12.3291,-84.2285
1778683093.790889,514593,-0.6026,-0.5824,1.2368,-34.2407,-5.188,-80.2002
1778683093.813722,514594,-0.6316,-0.5812,1.2106,-31.6772,0.6104,-76.5381
1778683093.816700,514595,-0.658,-0.5797,1.186,-29.0527,5.249,-73.4253
1778683093.816700,514596,-0.6736,-0.5763,1.1606,-25.5737,8.3008,-70.8618
1778683093.816700,514597,-0.6807,-0.5688,1.1352,-23.1934,10.2539,-68.6646
1778683093.822707,514598,-0.679,-0.5585,1.1123,-20.874,11.4746,-66.7114
1778683093.824696,514599,-0.668,-0.5502,1.0832,-19.4092,11.6577,-64.8193
1778683093.826826,514600,-0.6465,-0.5473,1.0532,-17.334,12.2681,-62.8052
1778683093.829823,514601,-0.6236,-0.5395,1.0292,-16.9067,12.9395,-60.5469
1778683093.832872,514602,-0.5994,-0.5302,1.0022,-14.6484,12.7563,-58.4717
1778683093.838269,514603,-0.5764,-0.5209,0.9785,-13.7329,12.6343,-56.7017
1778683093.841146,514604,-0.5579,-0.5133,0.9572,-12.3901,12.6953,-54.7485
1778683093.845342,514605,-0.5401,-0.5092,0.9421,-12.085,13.1836,-52.3071
1778683093.847970,514606,-0.5283,-0.5041,0.9133,-12.6953,13.7939,-49.8657
1778683093.855071,514607,-0.5034,-0.506,0.8952,-13.0005,14.6484,-47.7295
1778683093.859070,514608,-0.4793,-0.5138,0.885,-13.4888,15.9912,-45.7764
1778683093.861659,514609,-0.4739,-0.5212,0.8642,-14.2822,17.334,-43.7622
1778683093.865698,514610,-0.4873,-0.5221,0.8454,-14.1602,19.043,-41.3208
1778683093.865698,514611,-0.5093,-0.5236,0.8403,-15.3198,19.8975,-38.147
1778683093.874153,514612,-0.5308,-0.5255,0.8208,-15.8081,19.8364,-35.0342
1778683093.877608,514613,-0.5362,-0.5236,0.8029,-17.7612,19.3481,-32.5317
1778683093.881651,514614,-0.5325,-0.5255,0.7905,-19.043,17.7612,-30.3345
1778683093.889591,514615,-0.5217,-0.5304,0.7783,-21.3623,16.6016,-28.2593
1778683093.889591,514616,-0.5086,-0.5373,0.7644,-21.7896,15.2588,-26.062
1778683093.891403,514617,-0.5125,-0.5451,0.757,-23.8647,12.6953,-24.1089
1778683093.891403,514618,-0.5159,-0.5517,0.7539,-25.7568,10.0098,-21.7285
1778683093.901830,514619,-0.5264,-0.5614,0.7517,-27.2827,6.4087,-19.043
1778683093.904949,514620,-0.5274,-0.5712,0.749,-28.0762,2.3193,-16.4185
1778683093.907466,514621,-0.532,-0.5846,0.7324,-28.8086,-2.4414,-14.2822
1778683093.907466,514622,-0.531,-0.5922,0.7272,-29.9072,-8.4839,-12.085
1778683093.907466,514623,-0.5252,-0.6,0.7268,-30.0903,-13.1226,-9.0942
1778683093.925770,514624,-0.5112,-0.6046,0.7307,-30.8228,-16.1133,-5.6152
1778683093.926921,514625,-0.4944,-0.6034,0.7253,-31.0669,-17.6392,-2.1973
1778683093.926921,514626,-0.4827,-0.61,0.7189,-32.7148,-19.4092,1.2207
1778683093.936691,514627,-0.4795,-0.6132,0.7163,-31.5552,-20.5688,4.1504
1778683093.941304,514628,-0.4849,-0.6095,0.7023,-31.7993,-22.0947,7.3242
1778683093.943640,514629,-0.492,-0.6083,0.706,-31.3721,-23.7427,10.6812
1778683093.947628,514630,-0.4946,-0.6205,0.7158,-32.5317,-25.8789,13.4888
1778683093.956935,514631,-0.482,-0.6383,0.7321,-33.8135,-27.0386,16.1743
1778683093.956935,514632,-0.458,-0.6649,0.7539,-36.6211,-27.71,18.3716
1778683093.958004,514633,-0.4155,-0.6982,0.7605,-37.4146,-26.8555,20.5078
1778683093.965832,514634,-0.3736,-0.717,0.7626,-38.5742,-25.1465,22.4609
1778683093.965832,514635,-0.334,-0.7238,0.7702,-38.0859,-21.7896,24.231
1778683093.971637,514636,-0.2988,-0.7228,0.7817,-36.8042,-16.2354,25.8179
1778683093.981506,514637,-0.2754,-0.7135,0.8273,-35.4004,-10.0098,27.4048
1778683093.981506,514638,-0.2837,-0.7145,0.9001,-33.8135,-3.54,28.6865
1778683093.981506,514639,-0.3235,-0.7257,0.9851,-32.2876,2.4414,29.541
1778683093.990980,514640,-0.3819,-0.7514,1.0517,-31.3721,6.0425,29.9683
1778683093.996077,514641,-0.4365,-0.7834,1.1218,-28.0762,6.897,30.7007
1778683093.996077,514642,-0.4854,-0.8075,1.2446,-24.231,6.7749,32.2876
1778683093.998968,514643,-0.5034,-0.8266,1.309,-17.2729,7.5073,35.3394
1778683093.998968,514644,-0.4712,-0.8454,1.3205,-13.2446,9.4604,38.0859
1778683094.005969,514645,-0.4029,-0.8554,1.2858,-9.3994,13.6108,39.2456
1778683094.008027,514646,-0.3093,-0.8598,1.1909,-5.127,18.5547,38.7573
1778683094.008027,514647,-0.2163,-0.8398,1.0634,-1.8311,25.6348,38.147
1778683094.008027,514648,-0.1336,-0.7936,0.9501,2.2583,33.2031,38.0859
1778683094.008027,514649,-0.0808,-0.7365,0.8664,5.6152,41.9922,38.4521
1778683094.028696,514650,-0.0664,-0.6796,0.7993,7.5684,49.9878,38.8184
1778683094.029882,514651,-0.0874,-0.6457,0.7507,6.2866,55.6641,38.6963
1778683094.032192,514652,-0.127,-0.6357,0.7019,5.188,56.6406,37.9639
1778683094.032192,514653,-0.1743,-0.6427,0.6709,2.3804,54.6265,36.9263
1778683094.042246,514654,-0.2041,-0.6566,0.6682,0.3662,49.9878,35.7056
1778683094.052640,514655,-0.2146,-0.6813,0.6833,-1.0376,44.9219,34.79
1778683094.052640,514656,-0.2127,-0.7033,0.7126,-1.8921,40.5884,34.1797
1778683094.055154,514657,-0.2031,-0.7206,0.7382,-1.4648,39.0625,33.9966
1778683094.057833,514658,-0.2036,-0.7243,0.7707,-1.2207,38.6353,33.8135
1778683094.060651,514659,-0.2193,-0.716,0.7912,0.6714,39.7339,33.8745
1778683094.065295,514660,-0.2381,-0.6984,0.8076,1.9531,41.2598,33.6304
1778683094.065295,514661,-0.2637,-0.6816,0.8139,2.1973,41.5649,33.5083
1778683094.074102,514662,-0.2808,-0.6708,0.8071,2.2583,42.0532,33.3252
1778683094.078363,514663,-0.2957,-0.662,0.7973,1.6479,41.8091,32.8369
1778683094.087672,514664,-0.3013,-0.6498,0.7822,2.1973,41.1377,32.4707
1778683094.087672,514665,-0.3047,-0.6371,0.7719,3.2959,39.978,32.1045
1778683094.090684,514666,-0.3162,-0.6259,0.7617,2.6245,38.6963,32.1045
1778683094.091608,514667,-0.3218,-0.6147,0.7551,2.5635,37.9028,32.1655
1778683094.091608,514668,-0.3286,-0.6159,0.7407,2.1973,37.5366,31.9214
1778683094.091608,514669,-0.3316,-0.6095,0.7282,1.2817,37.6587,31.4331
1778683094.106034,514670,-0.3318,-0.6032,0.728,1.2817,37.5977,30.9448
1778683094.124481,514671,-0.3382,-0.5905,0.7355,1.6479,37.7197,30.5786
1778683094.129011,514672,-0.3455,-0.5824,0.7463,1.0986,37.8418,30.6396
1778683094.129011,514673,-0.3496,-0.5868,0.7578,1.709,37.9028,30.5176
1778683094.129523,514674,-0.3508,-0.5956,0.7688,0.9155,37.9028,30.5176
1778683094.129523,514675,-0.3572,-0.6071,0.7783,0.061,37.4146,30.5176
1778683094.129523,514676,-0.3635,-0.6166,0.7883,-0.1221,36.499,30.5176
1778683094.129523,514677,-0.365,-0.6256,0.7817,-0.7935,35.2173,30.7007
1778683094.129523,514678,-0.3665,-0.6313,0.7702,0.4272,34.4238,30.6396
1778683094.141649,514679,-0.3538,-0.6344,0.7536,0.8545,33.4473,30.3345
1778683094.144825,514680,-0.3357,-0.632,0.7395,1.1597,32.6538,30.1514
1778683094.147238,514681,-0.3225,-0.633,0.7326,1.5259,32.959,29.7852
1778683094.147238,514682,-0.3167,-0.6315,0.7312,1.4648,32.8369,29.8462
1778683094.158222,514683,-0.3157,-0.6357,0.726,2.3193,32.7759,29.7241
1778683094.161339,514684,-0.3189,-0.6347,0.7233,2.6245,32.1045,29.6631
1778683094.163682,514685,-0.315,-0.6366,0.7241,2.6855,31.4331,29.4189
1778683094.163682,514686,-0.3103,-0.6337,0.7316,2.8076,30.7007,29.2969
1778683094.175066,514687,-0.305,-0.633,0.7399,3.7231,30.4565,29.2358
1778683094.177370,514688,-0.3013,-0.6313,0.7485,3.0518,30.4565,29.3579
1778683094.190655,514689,-0.3035,-0.6339,0.7519,3.2959,30.7007,29.4189
1778683094.191039,514690,-0.3115,-0.6474,0.757,3.7842,30.5786,29.2969
1778683094.191039,514691,-0.3167,-0.6508,0.7509,4.0894,30.4565,29.0527
1778683094.191039,514692,-0.3233,-0.6479,0.7509,3.7231,30.1514,28.5034
1778683094.191039,514693,-0.3196,-0.6447,0.7453,4.7607,30.6396,28.2593
1778683094.206156,514694,-0.3213,-0.6413,0.739,5.188,30.3955,27.832
1778683094.209668,514695,-0.324,-0.64,0.7368,6.1646,30.3345,27.4048
1778683094.213914,514696,-0.3225,-0.6366,0.7346,6.0425,30.5786,27.1606
1778683094.213914,514697,-0.3264,-0.6335,0.7331,5.4321,30.3345,26.7944
1778683094.213914,514698,-0.3286,-0.6344,0.7307,6.2866,30.3955,26.3062
1778683094.226801,514699,-0.3313,-0.6313,0.7258,5.3101,30.8228,25.8789
1778683094.230966,514700,-0.3338,-0.6295,0.7219,6.0425,31.0059,25.5127
1778683094.230966,514701,-0.3323,-0.6237,0.728,6.3477,31.5552,25.2075
1778683094.238625,514702,-0.3333,-0.6203,0.7365,5.7983,31.5552,24.7803
1778683094.240947,514703,-0.3404,-0.6212,0.7456,5.5542,31.6162,24.5972
1778683094.245418,514704,-0.3491,-0.6266,0.7524,5.3101,31.25,24.353
1778683094.250347,514705,-0.3499,-0.6239,0.7524,5.3101,31.1279,24.231
1778683094.250347,514706,-0.3465,-0.6288,0.7548,5.188,30.8228,24.0479
1778683094.257054,514707,-0.3364,-0.6261,0.7522,4.8828,31.189,23.6816
1778683094.260546,514708,-0.3281,-0.6237,0.7512,4.2725,32.1045,23.3154
1778683094.263707,514709,-0.325,-0.6227,0.7517,4.4556,32.5317,23.0103
1778683094.263707,514710,-0.3245,-0.6261,0.7526,4.9438,33.0811,23.0713
1778683094.272403,514711,-0.3299,-0.6234,0.749,4.6387,34.1187,22.9492
1778683094.274532,514712,-0.3352,-0.6242,0.749,3.9673,34.4849,23.0103
1778683094.283653,514713,-0.3377,-0.6276,0.75,4.2725,34.3018,22.8882
1778683094.286396,514714,-0.3401,-0.6325,0.7492,4.1504,34.3628,22.8882
1778683094.291089,514715,-0.3425,-0.6293,0.7475,4.3335,33.5693,22.9492
1778683094.291089,514716,-0.3408,-0.631,0.7382,5.0659,33.3252,22.9492
1778683094.291089,514717,-0.3352,-0.6271,0.7321,5.7373,33.4473,22.7051
1778683094.291089,514718,-0.3379,-0.6274,0.728,5.3101,33.5693,22.2168
1778683094.303803,514719,-0.3362,-0.6254,0.7197,5.3101,33.3252,21.8506
1778683094.307504,514720,-0.3386,-0.6225,0.7202,5.4321,32.959,21.4844
1778683094.314666,514721,-0.3499,-0.6203,0.7165,5.9204,32.3486,21.3623
1778683094.317722,514722,-0.3594,-0.6188,0.718,5.0049,31.5552,21.0571
1778683094.319513,514723,-0.376,-0.6193,0.7177,4.8218,29.9072,20.6299
1778683094.324494,514724,-0.3819,-0.6171,0.7226,5.0659,27.9541,20.2026
1778683094.328801,514725,-0.3845,-0.6191,0.7282,5.249,26.062,19.7754
1778683094.328801,514726,-0.3806,-0.622,0.728,5.249,24.292,19.5923
1778683094.328801,514727,-0.3733,-0.622,0.7336,4.5166,23.0103,19.2871
1778683094.341310,514728,-0.3655,-0.6256,0.7343,5.127,22.8271,18.9209
1778683094.345853,514729,-0.357,-0.6247,0.7365,5.3711,22.7661,18.4326
1778683094.348005,514730,-0.353,-0.6247,0.7351,5.3711,22.8882,18.1274
1778683094.348005,514731,-0.3462,-0.623,0.7329,5.3101,23.7427,17.7612
1778683094.357183,514732,-0.3386,-0.6239,0.7312,5.7983,24.7803,17.4561
1778683094.361533,514733,-0.3306,-0.6244,0.727,6.2866,26.062,17.2119
1778683094.363970,514734,-0.3338,-0.6215,0.7329,6.6528,27.5269,16.7236
1778683094.369284,514735,-0.3279,-0.6193,0.7321,5.5542,28.8086,16.7236
1778683094.372690,514736,-0.3379,-0.6271,0.7304,5.8594,30.5176,16.6626
1778683094.383924,514737,-0.3357,-0.6274,0.7258,6.1035,31.8604,16.4185
1778683094.383924,514738,-0.3445,-0.6313,0.7292,6.6528,33.1421,16.2354
1778683094.383924,514739,-0.3452,-0.6252,0.728,6.5308,33.8745,15.9302
1778683094.398853,514740,-0.3487,-0.6261,0.7265,5.9204,34.3018,15.9302
1778683094.398853,514741,-0.3543,-0.6234,0.7314,6.1035,34.3628,15.686
1778683094.401455,514742,-0.3572,-0.6191,0.7351,6.5918,34.4238,15.8081
1778683094.407685,514743,-0.3631,-0.6181,0.7441,6.0425,33.5083,15.686
1778683094.407685,514744,-0.3743,-0.6166,0.7436,5.6152,32.2266,15.686
1778683094.414228,514745,-0.3767,-0.6156,0.7414,5.9814,30.8838,15.7471
1778683094.418195,514746,-0.3772,-0.6181,0.7336,5.7983,29.1748,15.7471
1778683094.418195,514747,-0.3684,-0.6164,0.7358,5.9204,28.0762,15.8081
1778683094.418195,514748,-0.3653,-0.6115,0.7351,5.4932,27.4658,15.7471
1778683094.424783,514749,-0.3613,-0.6129,0.7299,5.3711,27.0996,15.625
1778683094.428468,514750,-0.3606,-0.6173,0.729,4.8218,26.6113,15.5029
1778683094.445764,514751,-0.3599,-0.6188,0.7246,5.6763,26.4282,15.3198
1778683094.445764,514752,-0.3548,-0.6208,0.7167,5.0659,26.062,15.1367
1778683094.445764,514753,-0.3567,-0.6191,0.7216,5.8594,25.6348,14.8926
1778683094.447499,514754,-0.3572,-0.6166,0.7229,5.0049,25.6958,14.5874
1778683094.454287,514755,-0.3601,-0.6156,0.726,5.4932,25.5127,14.4653
1778683094.458144,514756,-0.3582,-0.6139,0.7285,5.127,25.5737,14.3433
1778683094.458144,514757,-0.3621,-0.6176,0.7309,4.4556,25.7568,14.2212
1778683094.460559,514758,-0.3601,-0.6164,0.7348,4.8828,25.7568,13.855
1778683094.464261,514759,-0.3574,-0.6159,0.7331,4.5776,26.062,13.7329
1778683094.472677,514760,-0.3552,-0.6117,0.7309,5.0049,26.6724,13.5498
1778683094.472677,514761,-0.3584,-0.6125,0.7272,4.9438,26.9165,13.1836
1778683094.477778,514762,-0.3587,-0.6115,0.7277,4.4556,26.9775,12.8174
1778683094.480232,514763,-0.3675,-0.6132,0.7287,3.9673,27.1606,12.6343
1778683094.480232,514764,-0.3723,-0.6139,0.7319,3.9062,26.8555,12.4512
1778683094.489391,514765,-0.3704,-0.6147,0.7368,4.2114,26.7334,12.3901
1778683094.490980,514766,-0.3711,-0.6191,0.7382,3.9673,26.1841,12.3901
1778683094.497563,514767,-0.3657,-0.6225,0.7326,3.2349,26.062,12.207
1778683094.499723,514768,-0.3591,-0.6183,0.7292,3.479,25.6958,12.2681
1778683094.499723,514769,-0.3596,-0.622,0.7263,3.6621,25.7568,12.2681
1778683094.509192,514770,-0.3572,-0.6171,0.7251,2.9907,25.6348,12.207
1778683094.510224,514771,-0.3577,-0.6225,0.7253,3.6621,25.2075,12.2681
1778683094.510224,514772,-0.3535,-0.6215,0.7275,3.6011,25.0244,12.6343
1778683094.510224,514773,-0.3548,-0.6222,0.7246,2.7466,25.1465,12.7563
1778683094.524448,514774,-0.356,-0.622,0.7214,2.6245,24.7803,13.0005
1778683094.529592,514775,-0.353,-0.623,0.7204,2.4414,24.7192,13.1226
1778683094.529592,514776,-0.3526,-0.621,0.7192,2.6245,24.4141,13.2446
1778683094.537100,514777,-0.3535,-0.6203,0.7209,2.6855,24.4141,13.4277
1778683094.544307,514778,-0.353,-0.6173,0.7211,2.0752,24.1699,13.4888
1778683094.545690,514779,-0.3545,-0.6203,0.7236,2.6245,24.4141,13.6108
1778683094.548047,514780,-0.3521,-0.6266,0.7214,3.54,24.231,13.7329
1778683094.548047,514781,-0.3528,-0.6222,0.7231,3.479,24.1699,13.6108
1778683094.554868,514782,-0.3574,-0.6183,0.7246,3.1128,23.6206,13.7329
1778683094.558053,514783,-0.3594,-0.6222,0.7277,2.8687,23.4375,13.7939
1778683094.558053,514784,-0.3606,-0.6237,0.737,2.7466,23.1323,14.0381
1778683094.558053,514785,-0.3609,-0.6291,0.7321,2.5635,23.1934,14.1602
1778683094.574011,514786,-0.3572,-0.6317,0.7251,2.2583,22.8271,14.4653
1778683094.574577,514787,-0.3508,-0.6283,0.7187,2.4414,22.522,14.4043
1778683094.574577,514788,-0.3469,-0.6288,0.7167,3.2959,23.0103,14.3433
1778683094.590929,514789,-0.3408,-0.6269,0.7182,4.0283,23.3765,14.3433
1778683094.592590,514790,-0.3433,-0.6264,0.7197,4.2725,24.4751,14.4043
1778683094.592590,514791,-0.3443,-0.6271,0.7172,4.3335,25.2686,14.5264
1778683094.592590,514792,-0.3494,-0.6293,0.7165,4.7607,26.3672,14.6484
1778683094.599994,514793,-0.3508,-0.6325,0.7158,4.5166,26.8555,14.6484
1778683094.605987,514794,-0.3577,-0.6313,0.7229,5.0049,26.9165,14.5874
1778683094.607802,514795,-0.3616,-0.6293,0.7131,4.5776,27.2827,14.4653
1778683094.607802,514796,-0.3718,-0.6327,0.7109,6.1035,26.4282,14.2822
1778683094.607802,514797,-0.376,-0.6242,0.7072,5.6152,25.3906,13.9771
1778683094.619775,514798,-0.3792,-0.6242,0.7133,6.1646,24.9023,13.6108
1778683094.623150,514799,-0.3728,-0.6247,0.7187,5.7983,24.1699,13.4888
1778683094.624606,514800,-0.3721,-0.6269,0.7194,5.9814,24.292,13.4277
1778683094.624606,514801,-0.3684,-0.6244,0.718,6.1646,24.1699,13.1836
1778683094.639863,514802,-0.365,-0.6281,0.7189,6.3477,24.1699,12.8174
1778683094.654754,514803,-0.3662,-0.63,0.7211,6.5918,24.292,12.5732
1778683094.654754,514804,-0.3655,-0.6256,0.7172,5.9204,24.5972,12.207
1778683094.654754,514805,-0.3648,-0.6252,0.7163,6.7139,25.0244,11.8408
1778683094.654754,514806,-0.364,-0.6237,0.7146,5.3101,25.9399,11.5356
1778683094.658958,514807,-0.364,-0.6256,0.7165,6.1035,25.6348,11.2915
1778683094.660006,514808,-0.3648,-0.6252,0.715,6.3477,26.3062,10.9863
1778683094.660006,514809,-0.3667,-0.6217,0.7177,6.897,26.123,10.9253
1778683094.670051,514810,-0.3631,-0.6232,0.7185,7.019,26.2451,10.6812
1778683094.670051,514811,-0.3638,-0.622,0.7182,6.1646,26.3672,10.376
1778683094.676397,514812,-0.3623,-0.6239,0.7167,6.958,26.5503,10.1929
1778683094.680394,514813,-0.3613,-0.6249,0.7192,7.2021,26.4893,10.0098
1778683094.683882,514814,-0.3616,-0.6247,0.7211,7.2632,26.6113,9.9487
1778683094.689878,514815,-0.3616,-0.6252,0.7243,7.6294,26.5503,10.0708
1778683094.691028,514816,-0.357,-0.6269,0.7202,7.5684,26.5503,10.0708
1778683094.697073,514817,-0.3526,-0.6281,0.7182,8.1177,26.4893,10.1318
1778683094.700006,514818,-0.3521,-0.6271,0.7158,6.897,26.6724,10.1929
1778683094.704623,514819,-0.3487,-0.6266,0.7141,7.3242,26.7334,10.2539
1778683094.707992,514820,-0.3543,-0.6269,0.7153,7.3853,27.0386,10.2539
1778683094.709053,514821,-0.353,-0.6281,0.7187,8.1177,26.9165,10.498
1778683094.718876,514822,-0.3545,-0.6308,0.7216,7.3853,27.3438,10.6201
1778683094.718876,514823,-0.3582,-0.6298,0.7175,8.1177,27.2217,10.6201
1778683094.723791,514824,-0.3591,-0.6298,0.7197,8.0566,26.7944,10.6812
1778683094.724464,514825,-0.3596,-0.6298,0.7199,8.2397,27.2217,10.8032
1778683094.724464,514826,-0.353,-0.632,0.7204,7.6294,27.5879,10.9863
1778683094.738210,514827,-0.3523,-0.6335,0.7197,9.3384,27.5269,11.0474
1778683094.740606,514828,-0.3521,-0.6325,0.7211,8.5449,28.0762,11.1694
1778683094.748627,514829,-0.3482,-0.6349,0.7219,8.606,28.2593,11.3525
1778683094.748627,514830,-0.3469,-0.6325,0.7187,8.8501,28.8696,11.5356
1778683094.748627,514831,-0.3452,-0.6313,0.7177,8.5449,29.2969,11.7188
1778683094.756094,514832,-0.353,-0.63,0.7185,8.8501,29.48,11.9019
1778683094.761793,514833,-0.3572,-0.6264,0.7192,8.8501,28.9307,12.0239
1778683094.763823,514834,-0.3604,-0.6286,0.7202,9.0942,28.5034,12.207
1778683094.771476,514835,-0.3611,-0.6286,0.7124,8.3008,28.6255,12.2681
1778683094.773407,514836,-0.3601,-0.6266,0.7099,9.0332,27.9541,12.2681
1778683094.776108,514837,-0.3577,-0.6237,0.7126,9.5825,27.4048,12.207
1778683094.780032,514838,-0.365,-0.6203,0.7121,10.1929,27.2827,12.4512
1778683094.783620,514839,-0.3689,-0.6195,0.7102,9.8877,26.8555,12.3901
1778683094.790504,514840,-0.3709,-0.622,0.7136,9.4604,25.9399,12.2681
1778683094.790504,514841,-0.3696,-0.6217,0.715,9.4604,25.9399,12.3901
1778683094.790504,514842,-0.3687,-0.6205,0.7187,10.0708,25.5737,12.3901
1778683094.790504,514843,-0.3677,-0.6195,0.7209,9.7656,25.1465,12.3901
1778683094.790504,514844,-0.3645,-0.6193,0.7224,9.6436,25.2686,12.5732
1778683094.809280,514845,-0.365,-0.6225,0.7268,10.7422,25.6348,12.5122
1778683094.813631,514846,-0.3645,-0.6249,0.7272,9.9487,25.7568,12.5732
1778683094.817114,514847,-0.3609,-0.62,0.7251,9.5825,25.5737,12.5732
1778683094.822878,514848,-0.3574,-0.621,0.7277,9.0942,25.9399,12.6953
1778683094.824698,514849,-0.3574,-0.6193,0.7248,9.0332,26.062,12.6343
1778683094.824698,514850,-0.3633,-0.6252,0.7236,9.3994,25.8179,12.8174
1778683094.824698,514851,-0.3662,-0.6227,0.7229,9.2163,25.8179,12.8784
1778683094.841206,514852,-0.3653,-0.6222,0.7207,9.2773,25.6958,12.6953
1778683094.842264,514853,-0.3618,-0.6244,0.7219,9.0942,25.6958,12.8174
1778683094.842264,514854,-0.3611,-0.6249,0.7255,9.0332,25.5127,12.8174
1778683094.842264,514855,-0.3633,-0.6254,0.7231,8.8501,24.9634,12.6953
1778683094.851716,514856,-0.3628,-0.6278,0.7226,8.1177,25.2686,12.8174
1778683094.856104,514857,-0.3626,-0.6256,0.7248,8.8501,24.7803,12.6953
1778683094.857988,514858,-0.3653,-0.6234,0.7246,8.3008,24.8413,12.3291
1778683094.857988,514859,-0.3628,-0.6237,0.7233,8.3618,25.1465,12.146
1778683094.857988,514860,-0.3623,-0.6222,0.7221,8.2397,24.9634,12.0239
1778683094.857988,514861,-0.3606,-0.6186,0.7219,8.3618,25.2686,11.9019
1778683094.875141,514862,-0.3667,-0.6186,0.7233,8.606,25.2075,11.7798
1778683094.875141,514863,-0.366,-0.6156,0.7268,8.3618,25.7568,11.6577
1778683094.875141,514864,-0.3694,-0.6161,0.7272,8.0566,25.6958,11.5356
1778683094.875141,514865,-0.3731,-0.6232,0.7258,7.2632,25.8179,11.5356
1778683094.892518,514866,-0.3675,-0.6227,0.7231,7.2632,25.3906,11.4136
1778683094.892518,514867,-0.3672,-0.6227,0.7263,7.8125,25.6348,11.3525
1778683094.907472,514868,-0.3687,-0.6203,0.7229,7.9956,25.5127,11.1694
1778683094.907472,514869,-0.3692,-0.6164,0.7246,7.3853,24.9634,10.8032
1778683094.907472,514870,-0.3677,-0.6171,0.7204,7.6904,24.6582,10.6812
1778683094.907472,514871,-0.3662,-0.6191,0.7194,6.5308,24.4751,10.5591
1778683094.907472,514872,-0.3665,-0.6217,0.7189,7.6294,24.4141,10.5591
1778683094.925385,514873,-0.3682,-0.6183,0.7197,6.3477,24.4751,10.437
1778683094.925385,514874,-0.3631,-0.6215,0.7229,6.0425,24.4751,10.376
1778683094.925385,514875,-0.3635,-0.6198,0.7282,6.7749,24.5361,10.3149
1778683094.925385,514876,-0.3645,-0.6208,0.728,6.5918,24.5361,10.376
1778683094.940359,514877,-0.3682,-0.6169,0.727,6.3477,24.0479,10.3149
1778683094.941553,514878,-0.3665,-0.6171,0.7251,5.9204,23.7427,10.437
1778683094.941553,514879,-0.364,-0.6159,0.7263,6.1646,23.6816,10.3149
1778683094.941553,514880,-0.3606,-0.6164,0.7263,6.2256,23.7427,10.3149
1778683094.956037,514881,-0.365,-0.6198,0.7275,5.5542,23.6816,10.376
1778683094.957655,514882,-0.3631,-0.6139,0.7263,5.4932,23.6206,10.437
1778683094.957655,514883,-0.3648,-0.6198,0.7233,5.249,23.8037,10.437
1778683094.972948,514884,-0.3665,-0.6188,0.7233,5.3101,23.8037,10.498
1778683094.972948,514885,-0.3628,-0.6227,0.7241,4.7607,23.4375,10.498
1778683094.975009,514886,-0.3589,-0.6181,0.7192,4.8218,23.5596,10.5591
1778683094.975009,514887,-0.357,-0.6191,0.7221,5.0049,23.5596,10.6201
1778683094.975009,514888,-0.3594,-0.6171,0.7214,3.7231,23.7427,10.7422
1778683094.975009,514889,-0.3548,-0.6212,0.7224,4.3945,23.6816,10.8643
1778683094.991380,514890,-0.3562,-0.623,0.7238,4.2725,23.5596,11.1694
1778683094.995716,514891,-0.3579,-0.6225,0.7258,3.7842,23.6206,11.2915
1778683095.003518,514892,-0.3562,-0.6227,0.7251,4.4556,23.6816,11.5356
1778683095.006902,514893,-0.3594,-0.6254,0.7236,4.2725,23.0103,11.9019
1778683095.007896,514894,-0.3552,-0.6244,0.7202,3.9062,22.8882,11.9019
1778683095.019239,514895,-0.3557,-0.6254,0.7172,3.6621,23.3154,12.085
1778683095.026735,514896,-0.357,-0.6239,0.7175,3.418,22.7051,12.207
1778683095.026735,514897,-0.3599,-0.6225,0.7182,4.7607,22.1558,12.3901
1778683095.028976,514898,-0.3606,-0.6217,0.7143,3.6621,22.0947,12.5732
1778683095.031028,514899,-0.3626,-0.6259,0.7106,4.3335,21.9116,12.4512
1778683095.031028,514900,-0.3616,-0.6269,0.7124,3.3569,21.6064,12.3901
1778683095.038385,514901,-0.3621,-0.6254,0.7106,3.6621,20.9961,12.3901
1778683095.046494,514902,-0.3618,-0.6276,0.7131,4.3945,21.2402,12.5122
1778683095.046494,514903,-0.357,-0.6293,0.7138,3.7842,20.874,12.5122
1778683095.057296,514904,-0.3577,-0.6259,0.7116,3.8452,20.752,12.5732
1778683095.057877,514905,-0.3555,-0.6264,0.7128,3.9062,20.813,12.5732
1778683095.064289,514906,-0.3596,-0.6271,0.7111,4.0894,20.752,12.6343
1778683095.065006,514907,-0.3574,-0.6271,0.7121,3.6621,20.6299,12.5122
1778683095.068358,514908,-0.3574,-0.622,0.715,5.6152,20.6299,12.6953
1778683095.070668,514909,-0.3562,-0.6288,0.7155,4.8218,20.5078,12.6953
1778683095.076996,514910,-0.3611,-0.6271,0.7143,5.0659,20.3247,12.6953
1778683095.079636,514911,-0.3579,-0.6325,0.7199,5.0049,20.6299,12.6953
1778683095.081752,514912,-0.3574,-0.6325,0.7204,4.8218,21.3623,12.7563
1778683095.088483,514913,-0.3548,-0.6357,0.7175,4.3335,21.3623,12.6953
1778683095.090480,514914,-0.3508,-0.633,0.7182,5.7373,22.0337,12.6343
1778683095.098648,514915,-0.3504,-0.6325,0.7111,5.8594,22.7661,12.4512
1778683095.101037,514916,-0.3474,-0.6339,0.7116,5.127,23.4375,12.3291
1778683095.106180,514917,-0.3487,-0.6305,0.7133,5.9814,23.8647,12.207
1778683095.107935,514918,-0.3526,-0.6295,0.7133,6.4697,24.4141,12.146
1778683095.107935,514919,-0.3601,-0.6298,0.7199,5.7373,24.9023,12.085
1778683095.114941,514920,-0.3601,-0.6369,0.718,5.9204,24.9023,12.0239
1778683095.119053,514921,-0.3584,-0.6347,0.7082,7.019,25.0244,11.9629
1778683095.122715,514922,-0.3577,-0.6276,0.7084,7.2632,25.0854,11.7188
1778683095.128679,514923,-0.3565,-0.6261,0.7097,7.6904,25.4517,11.4136
1778683095.132677,514924,-0.3591,-0.6247,0.7148,6.8359,25.8789,11.3525
1778683095.132782,514925,-0.3623,-0.6232,0.716,7.6904,26.001,11.2915
1778683095.139408,514926,-0.367,-0.6247,0.715,6.7749,26.062,11.2305
1778683095.147908,514927,-0.3645,-0.6288,0.7192,7.2021,25.9399,11.0474
1778683095.147908,514928,-0.3675,-0.6313,0.7189,6.958,25.6348,10.8032
1778683095.147908,514929,-0.3653,-0.6288,0.7167,7.7515,25.3296,10.8032
1778683095.157066,514930,-0.3621,-0.6286,0.7148,8.7891,24.6582,10.6201
1778683095.159955,514931,-0.3599,-0.6286,0.7128,7.0801,24.8413,10.5591
1778683095.162862,514932,-0.3552,-0.6259,0.7143,7.8125,24.9023,10.498
1778683095.162862,514933,-0.3567,-0.6244,0.7128,7.3853,24.8413,10.376
1778683095.171923,514934,-0.3599,-0.6266,0.7133,7.7515,24.8413,10.437
1778683095.174644,514935,-0.3596,-0.6266,0.7192,8.1177,25.0244,10.5591
1778683095.178497,514936,-0.3589,-0.6308,0.7229,8.1177,24.9634,10.6812
1778683095.183144,514937,-0.3584,-0.6327,0.7226,7.7515,25.2075,10.7422
1778683095.188327,514938,-0.3557,-0.6298,0.7194,7.6904,25.1465,10.7422
1778683095.190951,514939,-0.3504,-0.632,0.7126,7.8125,25.0244,10.6812
1778683095.190951,514940,-0.3499,-0.6271,0.7141,7.6294,25.0854,10.6812
1778683095.202253,514941,-0.3533,-0.6203,0.7138,7.6294,25.1465,10.7422
1778683095.206146,514942,-0.3535,-0.6183,0.7224,7.6904,24.9023,10.9253
1778683095.208426,514943,-0.3582,-0.6239,0.7251,7.9346,24.8413,11.2305
1778683095.211608,514944,-0.3574,-0.6266,0.7258,6.8359,25.0244,11.4136
1778683095.213605,514945,-0.3535,-0.6281,0.726,7.8735,24.9023,11.7188
1778683095.219432,514946,-0.3477,-0.6283,0.726,7.5073,24.7192,11.7188
1778683095.222732,514947,-0.3445,-0.6244,0.7226,7.3853,24.5972,11.7798
1778683095.228707,514948,-0.3482,-0.6242,0.7211,7.1411,24.9634,11.9629
1778683095.231004,514949,-0.3508,-0.6227,0.7185,7.7515,24.9634,11.9629
1778683095.233872,514950,-0.3516,-0.6198,0.7202,6.897,24.6582,11.7798
1778683095.238511,514951,-0.3596,-0.6249,0.7207,7.0801,24.353,11.9019
1778683095.241965,514952,-0.3577,-0.6252,0.7255,6.4697,24.1089,12.146
1778683095.255179,514953,-0.3623,-0.6259,0.7243,6.4087,23.9258,12.2681
1778683095.255179,514954,-0.3616,-0.6291,0.7199,6.5308,23.7427,12.207
1778683095.257756,514955,-0.3587,-0.6286,0.7204,6.4697,24.0479,12.207
1778683095.267703,514956,-0.3504,-0.6303,0.7141,6.2866,24.1089,12.0239
1778683095.267703,514957,-0.3516,-0.6259,0.7128,6.5918,23.9868,12.085
1778683095.268091,514958,-0.3506,-0.6276,0.7165,6.7139,24.0479,12.146
1778683095.270952,514959,-0.3538,-0.6237,0.7155,7.1411,23.9258,12.3291
1778683095.274500,514960,-0.3623,-0.6264,0.7224,5.6763,23.6206,12.3901
1778683095.274500,514961,-0.3631,-0.6252,0.7192,6.7139,23.4375,12.5732
1778683095.282708,514962,-0.3562,-0.6286,0.7229,5.9814,23.1934,12.5732
1778683095.285840,514963,-0.3548,-0.6291,0.7192,5.4932,22.7661,12.6953
1778683095.290930,514964,-0.3552,-0.63,0.7182,6.7139,22.8271,12.9395
1778683095.290930,514965,-0.3472,-0.6298,0.7133,6.8359,23.1323,13.0615
1778683095.298665,514966,-0.3447,-0.63,0.7099,6.4697,23.1934,13.2446
1778683095.301288,514967,-0.3479,-0.6281,0.7109,7.3242,23.1934,13.2446
1778683095.316096,514968,-0.3494,-0.6305,0.7131,7.5684,23.7427,13.3057
1778683095.316096,514969,-0.3499,-0.6298,0.7158,7.5073,23.7427,13.4277
1778683095.318040,514970,-0.3523,-0.6332,0.7148,6.958,23.9868,13.4888
1778683095.319045,514971,-0.3555,-0.6293,0.7185,7.3853,23.9258,13.4888
1778683095.324817,514972,-0.3582,-0.6293,0.7219,7.2021,24.5361,13.4888
1778683095.327410,514973,-0.3589,-0.6322,0.7197,7.5073,24.4751,13.5498
1778683095.330741,514974,-0.3548,-0.6322,0.7202,7.6294,24.1089,13.5498
1778683095.330741,514975,-0.355,-0.631,0.7199,7.8735,24.292,13.7329
1778683095.330741,514976,-0.3526,-0.631,0.718,7.8735,24.7192,13.7939
1778683095.342050,514977,-0.3508,-0.6308,0.7165,8.3008,24.7803,13.7329
1778683095.356088,514978,-0.3516,-0.6317,0.7163,8.1787,25.1465,13.7939
1778683095.357481,514979,-0.3535,-0.6269,0.7143,7.8125,25.3906,13.855
1778683095.357481,514980,-0.3594,-0.6291,0.7114,7.8735,24.8413,13.7939
1778683095.357481,514981,-0.3618,-0.6286,0.7116,7.7515,24.7192,13.6719
1778683095.371612,514982,-0.3613,-0.6256,0.7131,8.1177,24.353,13.6108
1778683095.372620,514983,-0.3616,-0.6305,0.7136,8.4229,23.9258,13.6108
1778683095.374787,514984,-0.3604,-0.6276,0.7136,8.5449,24.4751,13.4888
1778683095.375257,514985,-0.3574,-0.6256,0.7133,8.3008,23.8037,13.3667
1778683095.375257,514986,-0.354,-0.6254,0.7146,8.3008,23.3765,13.3057
1778683095.384065,514987,-0.3572,-0.622,0.7189,8.5449,23.6206,13.4277
1778683095.386095,514988,-0.357,-0.6227,0.7216,7.9956,23.9258,13.4277
1778683095.392101,514989,-0.3548,-0.6254,0.7224,8.606,24.0479,13.3057
1778683095.394489,514990,-0.3562,-0.6266,0.7241,8.4229,24.353,13.2446
1778683095.397313,514991,-0.3601,-0.6305,0.7226,7.4463,24.231,13.3057
1778683095.397313,514992,-0.3574,-0.6303,0.7199,7.7515,23.9868,13.2446
1778683095.406204,514993,-0.3584,-0.6254,0.7216,8.5449,23.7427,13.1836
1778683095.412896,514994,-0.3584,-0.6261,0.7202,8.3618,23.6816,13.1226
1778683095.415997,514995,-0.3582,-0.6278,0.7202,7.5684,23.9868,12.9395
1778683095.418706,514996,-0.3589,-0.6274,0.7187,7.9346,23.6816,12.8784
1778683095.423046,514997,-0.3577,-0.6222,0.7194,7.6294,23.8647,12.8174
1778683095.424836,514998,-0.357,-0.6237,0.7219,7.9956,23.3154,12.5732
1778683095.424836,514999,-0.3599,-0.6232,0.7189,8.4839,23.4985,12.4512
1778683095.424836,515000,-0.3567,-0.6256,0.7209,8.728,23.6206,12.4512
1778683095.438469,515001,-0.3584,-0.6286,0.7219,7.6294,23.5596,12.4512
1778683095.441662,515002,-0.3557,-0.6266,0.7224,8.2397,23.6206,12.5122
1778683095.446726,515003,-0.356,-0.6283,0.7214,8.1787,23.8037,12.5122
1778683095.446726,515004,-0.3557,-0.6303,0.7238,8.4839,23.7427,12.4512
1778683095.455964,515005,-0.3506,-0.6295,0.7238,7.9956,23.8647,12.4512
1778683095.459980,515006,-0.3538,-0.6315,0.7202,8.3008,23.6816,12.5122
1778683095.466349,515007,-0.3494,-0.6325,0.7155,8.1177,24.1089,12.5122
1778683095.468390,515008,-0.3484,-0.6303,0.7114,9.1553,24.0479,12.3901
1778683095.468390,515009,-0.3457,-0.6303,0.7133,8.4839,24.231,12.2681
1778683095.474363,515010,-0.353,-0.6239,0.7153,9.2163,24.1699,12.3901
1778683095.480953,515011,-0.3594,-0.6222,0.7175,8.9722,24.6582,12.3291
1778683095.483387,515012,-0.3635,-0.6164,0.7192,8.0566,24.0479,12.2681
1778683095.488552,515013,-0.3677,-0.6225,0.7216,8.3618,24.1089,12.207
1778683095.490554,515014,-0.365,-0.6249,0.7263,8.5449,23.3765,12.146
1778683095.491382,515015,-0.3611,-0.6266,0.7248,8.7891,23.2544,11.9019
1778683095.491382,515016,-0.3596,-0.6242,0.726,8.1787,23.0103,11.7798
1778683095.491382,515017,-0.3611,-0.6237,0.7251,8.0566,22.644,11.6577
1778683095.509640,515018,-0.3543,-0.6154,0.7248,7.7515,22.9492,11.4746
1778683095.511742,515019,-0.353,-0.6186,0.7241,8.0566,23.0103,11.4136
1778683095.511742,515020,-0.355,-0.6205,0.7229,8.1787,23.1934,11.4746
1778683095.523467,515021,-0.3594,-0.623,0.7233,8.4839,23.6206,11.4136
1778683095.523467,515022,-0.3579,-0.6232,0.7199,8.8501,24.0479,11.2915
1778683095.527724,515023,-0.356,-0.622,0.7204,7.6904,23.9258,11.1084
1778683095.530826,515024,-0.354,-0.6222,0.7187,8.0566,24.1089,11.0474
1778683095.531978,515025,-0.353,-0.6234,0.7236,7.3853,24.1089,10.9863
1778683095.531978,515026,-0.3538,-0.6244,0.7265,8.3618,24.0479,11.1694
1778683095.541193,515027,-0.3523,-0.6271,0.7265,7.1411,24.4751,11.1694
1778683095.541193,515028,-0.3472,-0.6283,0.7238,8.606,24.4141,11.2305
1778683095.558071,515029,-0.3479,-0.6264,0.7202,8.3008,24.7803,11.1084
1778683095.558071,515030,-0.3455,-0.6291,0.7226,7.9956,24.6582,11.1084
1778683095.559145,515031,-0.3455,-0.6249,0.7224,8.3618,25.0854,11.1084
1778683095.559145,515032,-0.3487,-0.6269,0.7241,8.9722,25.2075,11.2915
1778683095.559145,515033,-0.3521,-0.6249,0.7241,7.5684,25.2686,11.3525
1778683095.559145,515034,-0.3555,-0.6269,0.7221,8.4229,25.2686,11.3525
1778683095.574793,515035,-0.3587,-0.6261,0.7214,8.1177,25.0244,11.2915
1778683095.577722,515036,-0.3591,-0.6259,0.7211,8.1177,25.2075,11.1694
1778683095.583886,515037,-0.3562,-0.6222,0.7211,8.2397,25.3296,11.1694
1778683095.587028,515038,-0.3574,-0.6234,0.727,7.6294,25.2686,11.2915
1778683095.589031,515039,-0.3567,-0.6208,0.7253,7.5684,25.3296,11.3525
1778683095.590955,515040,-0.354,-0.6242,0.7229,7.1411,25.1465,11.2915
1778683095.590955,515041,-0.3516,-0.6227,0.7204,8.3008,25.0244,11.2915
1778683095.590955,515042,-0.3438,-0.6195,0.7153,8.728,25.2686,11.2915
1778683095.605453,515043,-0.3413,-0.6183,0.7167,8.3618,25.3296,11.1694
1778683095.608399,515044,-0.3401,-0.6164,0.7221,8.1787,25.5737,11.1084
1778683095.608399,515045,-0.3404,-0.6156,0.7241,8.7891,25.5737,11.2305
1778683095.621020,515046,-0.3369,-0.6166,0.729,7.5073,25.2686,11.2305
1778683095.623594,515047,-0.3404,-0.6183,0.7307,7.9346,25.1465,11.1084
1778683095.627129,515048,-0.3401,-0.6156,0.7316,7.5684,25.4517,11.1694
1778683095.631017,515049,-0.343,-0.6208,0.7321,8.1787,25.2075,11.0474
1778683095.631017,515050,-0.3526,-0.6215,0.7321,7.8735,25.5737,10.9253
1778683095.638198,515051,-0.354,-0.6227,0.728,7.6904,25.2075,10.7422
1778683095.641324,515052,-0.3594,-0.6259,0.7241,7.9346,25.2686,10.5591
1778683095.641324,515053,-0.3567,-0.6222,0.7238,7.7515,25.0244,10.3149
1778683095.674083,515054,-0.3579,-0.6193,0.7275,7.5073,24.8413,10.0098
1778683095.674083,515055,-0.3594,-0.6169,0.7285,7.4463,25.1465,9.8877
1778683095.674083,515056,-0.3655,-0.6193,0.7299,7.4463,25.2075,9.7046
1778683095.674083,515057,-0.3623,-0.6293,0.7209,6.7139,25.3906,9.6436
1778683095.674083,515058,-0.3555,-0.6313,0.7136,7.3853,25.4517,9.2773
1778683095.674083,515059,-0.3521,-0.6259,0.7124,7.2632,25.3296,8.7891
1778683095.674083,515060,-0.3479,-0.6227,0.7153,7.4463,25.2075,8.728
1778683095.679657,515061,-0.3521,-0.6217,0.7209,7.6294,25.7568,8.667
1778683095.682883,515062,-0.357,-0.6259,0.726,8.1787,25.8789,8.606
1778683095.683598,515063,-0.3596,-0.6286,0.7238,7.9346,25.6348,8.606
1778683095.691182,515064,-0.3606,-0.6303,0.7207,7.5684,25.5127,8.667
1778683095.694201,515065,-0.3596,-0.6276,0.7175,7.6294,25.2075,8.4839
1778683095.697209,515066,-0.3643,-0.6247,0.7185,7.5684,24.9023,8.4839
1778683095.703966,515067,-0.3638,-0.6244,0.7194,8.4229,24.6582,8.4229
1778683095.707520,515068,-0.3594,-0.6244,0.7202,8.2397,23.8647,8.5449
1778683095.715559,515069,-0.3533,-0.6249,0.7199,7.1411,23.3154,8.606
1778683095.719034,515070,-0.3477,-0.6244,0.7226,7.6904,22.8882,8.4839
1778683095.726662,515071,-0.3474,-0.621,0.729,7.7515,22.7661,8.4839
1778683095.726662,515072,-0.3518,-0.6264,0.729,8.1177,22.522,8.5449
1778683095.726662,515073,-0.3572,-0.6261,0.7324,6.958,22.522,8.606
1778683095.731621,515074,-0.3582,-0.6281,0.7321,6.3477,22.2168,8.728
1778683095.731621,515075,-0.3562,-0.6325,0.7297,7.019,21.9727,8.728
1778683095.738478,515076,-0.3567,-0.6315,0.7255,7.019,21.7896,8.728
1778683095.740839,515077,-0.3584,-0.6305,0.7209,6.7749,21.6064,8.667
1778683095.747848,515078,-0.3538,-0.633,0.718,6.8359,21.6675,8.606
1778683095.747848,515079,-0.3533,-0.63,0.717,7.3242,21.4844,8.667
1778683095.763182,515080,-0.3506,-0.6357,0.7209,7.2632,21.4844,8.8501
1778683095.763182,515081,-0.3506,-0.6344,0.7209,7.3853,22.0337,8.9111
1778683095.763182,515082,-0.3506,-0.6379,0.7229,7.6904,21.8506,8.8501
1778683095.763182,515083,-0.345,-0.6386,0.7211,7.6904,22.1558,8.9111
1778683095.763182,515084,-0.344,-0.6408,0.7255,8.4229,22.2778,8.9111
1778683095.774788,515085,-0.3433,-0.6357,0.7229,9.0942,22.4609,8.9722
1778683095.777857,515086,-0.343,-0.6383,0.7153,8.606,22.7051,8.9722
1778683095.781672,515087,-0.3391,-0.6379,0.708,8.8501,23.4375,8.7891
1778683095.786024,515088,-0.3362,-0.6339,0.7084,9.8267,24.353,8.667
1778683095.789510,515089,-0.3372,-0.6281,0.7211,9.8877,24.8413,8.4839
1778683095.793912,515090,-0.343,-0.6247,0.7268,9.9487,25.4517,8.606
1778683095.797021,515091,-0.3557,-0.6315,0.7304,10.9253,25.5737,8.728
1778683095.797021,515092,-0.3628,-0.6344,0.7297,9.8267,25.3906,8.4839
1778683095.805969,515093,-0.3628,-0.6376,0.7207,10.1929,24.9023,8.3008
1778683095.807888,515094,-0.3577,-0.6371,0.7163,10.2539,24.4141,8.0566
1778683095.816173,515095,-0.3555,-0.6383,0.7165,11.5356,24.1089,7.8735
1778683095.823822,515096,-0.3528,-0.6359,0.7155,11.3525,23.7427,7.8735
1778683095.824464,515097,-0.3516,-0.6303,0.7158,11.9019,23.0713,7.6904
1778683095.828939,515098,-0.3513,-0.6286,0.7226,12.5122,22.1558,7.6294
1778683095.831696,515099,-0.355,-0.6298,0.7246,12.9395,21.7896,7.6294
1778683095.831696,515100,-0.3484,-0.6278,0.7219,12.7563,21.4233,7.7515
1778683095.838467,515101,-0.3465,-0.6266,0.7124,12.8784,21.4844,7.5073
1778683095.841505,515102,-0.3462,-0.6274,0.7143,13.2446,21.2402,7.2632
1778683095.847185,515103,-0.3455,-0.62,0.7207,12.8784,20.874,6.958
1778683095.852822,515104,-0.3521,-0.6195,0.7277,12.8174,20.752,6.7749
1778683095.855194,515105,-0.355,-0.6244,0.7336,13.3057,20.9961,6.6528
1778683095.857196,515106,-0.353,-0.6339,0.7358,13.0005,20.874,6.4697
1778683095.857916,515107,-0.3482,-0.6352,0.7373,13.4277,20.6909,6.3477
1778683095.868117,515108,-0.3418,-0.6342,0.739,12.8784,20.813,6.1035
1778683095.870057,515109,-0.3355,-0.6281,0.7419,12.7563,21.3623,5.9204
1778683095.874838,515110,-0.3389,-0.6271,0.7438,13.3057,21.9727,5.7373
1778683095.877578,515111,-0.3364,-0.6281,0.7424,13.5498,22.2168,5.6152
1778683095.881995,515112,-0.3372,-0.63,0.7353,13.855,22.8882,5.5542
1778683095.886853,515113,-0.3374,-0.6347,0.7312,12.6343,22.7661,5.4321
1778683095.889311,515114,-0.3277,-0.6327,0.7236,12.6343,23.7427,5.188
1778683095.891070,515115,-0.3233,-0.6347,0.7153,13.2446,24.1699,4.8828
1778683095.891070,515116,-0.3194,-0.631,0.7165,13.6108,25.0854,4.7607
1778683095.901288,515117,-0.3198,-0.6303,0.7246,14.0381,25.5127,4.6997
1778683095.904553,515118,-0.3228,-0.6256,0.7312,14.0991,26.1841,4.6387
1778683095.908131,515119,-0.3284,-0.6286,0.7363,14.4043,26.9165,4.5166
1778683095.908131,515120,-0.3369,-0.6313,0.7397,14.8315,27.5269,4.3945
1778683095.929909,515121,-0.3374,-0.6315,0.7395,14.8926,27.71,4.0894
1778683095.940511,515122,-0.3377,-0.6325,0.7353,15.1978,28.0151,3.7231
1778683095.940511,515123,-0.335,-0.6305,0.7348,15.1367,28.8696,3.2959
1778683095.940511,515124,-0.3303,-0.6278,0.7404,16.1133,29.4189,2.7466
1778683095.940511,515125,-0.3296,-0.6249,0.7419,14.8926,30.2124,2.5635
1778683095.941441,515126,-0.3394,-0.6212,0.7412,14.2212,30.7617,2.2583
1778683095.944610,515127,-0.3462,-0.6222,0.7431,14.8926,30.6396,1.8921
1778683095.946727,515128,-0.354,-0.6178,0.7434,15.0757,30.2124,1.709
1778683095.963779,515129,-0.355,-0.6169,0.7438,14.1602,29.8462,1.4648
